Folder: Thesis/Python/Experiments/IRFB/240503-Felt-1p5M_FeCl2FeCl3-1M_HCl/Data

File: 240503-EIS-Felt-1p5M_FeCl2FeCl3-1M_HCl-10mLmin-20mHz_10ppd-Warmup_C15.mpt
EC-Lab ASCII FILE
Nb header lines : 66

Potentio Electrochemical Impedance Spectroscopy

Run on channel : 15 (SN 19485)
User :
Electrode connection : standard
Potential control : Ewe
Ewe ctrl range : min = -1.00 V, max = 1.00 V
Ewe,I filtering : <None>
Safety Limits :
	Do not start on E overload
Channel : Floating
Acquisition started on : 05/03/2024 11:49:26.278
Loaded Setting File :  C:\Data\mathias\IRFB\240418-EIS-Cloth2-0p5M_FeCl2FeCl3-1M_HCl-20mLmin-25mHz_10ppd-Warmup_C15.mpr
Saved on :
	File : 240503-EIS-Felt-1p5M_FeCl2FeCl3-1M_HCl-10mLmin-20mHz_10ppd-Warmup_C15.mpr
	Directory : C:\Data\mathias\IRFB\
	Host : 192.168.0.1
Device : VMP-300 (SN 0826)
Address : USB
EC-Lab for windows v11.52 (software)
Internet server v11.52 (firmware)
Command interpretor v11.52 (firmware)
Electrode material :
Initial state :
Electrolyte :
Comments :
Cable : special
Electrode surface area : 0.001 cm²
Characteristic mass : 0.001 g
Equivalent Weight : 0.000 g/eq.
Density : 0.000 g/cm3
Volume (V) : 0.001 cm³
Record EIS quality indicators
Cycle Definition : Charge/Discharge alternance
Mode                Single sine
E (V)               0.0000
vs.                 Eoc
tE (h:m:s)          0:00:0.0000
record              0
dI                  0.000
unit dI             mA
dt (s)              0.000
fi                  220.000
unit fi             kHz
ff                  20.000
unit ff             mHz
Nd                  10
Points              per decade
spacing             Logarithmic
Va (mV)             5.0
pw                  0.10
Na                  3
corr                1
E range min (V)     -1.000
E range max (V)     1.000
I Range             Auto
Bandwidth           8
nc cycles           2
goto Ns'            0
nr cycles           999
inc. cycle          1

freq/Hz	Re(Z)/Ohm	-Im(Z)/Ohm	|Z|/Ohm	Phase(Z)/deg	time/s	<Ewe>/V	<I>/mA	Cs/µF	Cp/µF	cycle number	I Range	|Ewe|/V	|I|/A	Ns	(Q-Qo)/mA.h	THD Ewe/%	NSD Ewe/%	NSR Ewe/%	|Ewe h2|/V	|Ewe h3|/V	|Ewe h4|/V	|Ewe h5|/V	|Ewe h6|/V	|Ewe h7|/V	THD I/%	NSD I/%	NSR I/%	|I h2|/A	|I h3|/A	|I h4|/A	|I h5|/A	|I h6|/A	|I h7|/A	Re(Y)/Ohm-1	Im(Y)/Ohm-1	|Y|/Ohm-1	Phase(Y)/deg	Re(C)/nF	Im(C)/nF	|C|/nF	Phase(C)/deg	Re(M)	Im(M)	|M|	Phase(M)/deg	Re(Permittivity)	Im(Permittivity)	|Permittivity|	Phase(Permittivity)/deg	Re(Resistivity)/Ohm.cm	Im(Resistivity)/Ohm.cm	|Resistivity|/Ohm.cm	Phase(Resistivity)/deg	Re(Conductivity)/mS/cm	Im(Conductivity)/mS/cm	|Conductivity|/mS/cm	Phase(Conductivity)/deg	Tan(Delta)	Loss Angle(Delta)/deg	dq/mA.h
220003	0.0869741	-0.0165405	0.088533	10.7678	1.86248	-0.000411326	-2.85661	-43.7365	-1.52662	1	37	0.00312453	0.0352923	0	-0.00145411	-1	-1	-1	0	0	0	0	0	0	-1	-1	-1	0	0	0	0	0	0	11.0963	-2.11027	11.2952	-10.7678	-1526.62	8027.35	8171.23	-100.768	0.0000000E+000	0.0000000E+000	0.0000000E+000	100.768	0.0000000E+000	0.0000000E+000	0.0000000E+000	-100.768	0.0000000E+000	0.0000000E+000	0.0000000E+000	10.7678	0.0000000E+000	0.0000000E+000	0.0000000E+000	-10.7678	5.25826	79.2322	-0.00145411
3403.27	0.103477	0.00286333	0.103516	-1.58504	23.4456	-0.00054237	-3.33427	16332.5	12.4962	1	37	0.0051701	0.0499447	0	-0.0179206	0.461699	0.186878	6.75691	8.39766e-06	8.634e-06	9.64152e-06	1.01201e-05	8.84543e-06	9.95442e-06	0.0920449	0.0472702	0.507091	9.98703e-06	4.07951e-05	4.42034e-06	8.50951e-06	8.21606e-06	4.46431e-06	9.6566	0.26721	9.6603	1.58504	12496.1	451594	451767	-88.415	0.0000000E+000	0.0000000E+000	0.0000000E+000	88.415	0.0000000E+000	0.0000000E+000	0.0000000E+000	-88.415	0.0000000E+000	0.0000000E+000	0.0000000E+000	-1.58504	0.0000000E+000	0.0000000E+000	0.0000000E+000	1.58504	36.1386	88.415	-0.00115812
52.6255	0.107711	0.00121949	0.107717	-0.648672	46.1438	-0.000508481	-3.38281	2.47996e+06	317.856	1	37	0.00511649	0.0474992	0	-0.0386005	0.456138	0.159601	6.98345	1.21286e-05	8.92537e-06	3.99111e-06	1.22681e-05	6.10883e-06	7.44551e-06	0.103562	0.130781	0.500431	8.92918e-06	6.48952e-05	7.9527e-06	3.19941e-05	7.45084e-06	8.62584e-06	9.28295	0.105101	9.28355	0.648672	317857	2.80744e+07	2.80762e+07	-89.3513	0.0000000E+000	0.0000000E+000	0.0000000E+000	89.3513	0.0000000E+000	0.0000000E+000	0.0000000E+000	-89.3513	0.0000000E+000	0.0000000E+000	0.0000000E+000	-0.648672	0.0000000E+000	0.0000000E+000	0.0000000E+000	0.648672	88.324	89.3513	-0.0010208
0.813551	0.111897	0.00566067	0.11204	-2.89603	91.7537	-0.000515056	-3.62286	3.45595e+07	88218.1	1	37	0.00512678	0.0457585	0	-0.0788149	0.130367	0.0686961	1.24672	2.15787e-06	4.14002e-06	2.02708e-06	2.47904e-06	1.54446e-06	2.42485e-06	0.316261	0.0732148	0.367566	0.000123291	5.09337e-05	1.93667e-05	3.88825e-05	9.60689e-06	5.82857e-06	8.91399	0.450944	8.92539	2.89603	8.8218e+07	1.74384e+09	1.74607e+09	-87.104	0.0000000E+000	0.0000000E+000	0.0000000E+000	87.104	0.0000000E+000	0.0000000E+000	0.0000000E+000	-87.104	0.0000000E+000	0.0000000E+000	0.0000000E+000	-2.89603	0.0000000E+000	0.0000000E+000	0.0000000E+000	2.89603	19.7674	87.104	-0.00341647
174510	0.0877755	-0.0143555	0.0889417	9.28836	1539.8	-0.000415594	-4.57032	-63.5304	-1.65503	2	37	0.0044507	0.0500407	0	-1.43271	-1	-1	-1	0	0	0	0	0	0	-1	-1	-1	0	0	0	0	0	0	11.0959	-1.81471	11.2433	-9.28836	-1655.03	10119.6	10254	-99.2884	0.0000000E+000	0.0000000E+000	0.0000000E+000	99.2884	0.0000000E+000	0.0000000E+000	0.0000000E+000	-99.2884	0.0000000E+000	0.0000000E+000	0.0000000E+000	9.28836	0.0000000E+000	0.0000000E+000	0.0000000E+000	-9.28836	6.11443	80.7116	-0.00169277
2699.14	0.102179	0.00284389	0.102218	-1.59428	1561.7	-0.000563546	-3.7153	20734	16.0492	2	37	0.00517827	0.0506591	0	-1.45189	0.375997	0.115035	5.88506	5.92492e-06	6.61708e-06	5.06141e-06	1.10695e-05	2.04711e-06	7.91204e-06	0.0805642	0.0164593	0.406874	7.08616e-06	3.6445e-05	3.30944e-06	8.27142e-06	6.24176e-06	3.24549e-06	9.77922	0.272181	9.783	1.59428	16049.2	576633	576856	-88.4057	0.0000000E+000	0.0000000E+000	0.0000000E+000	88.4057	0.0000000E+000	0.0000000E+000	0.0000000E+000	-88.4057	0.0000000E+000	0.0000000E+000	0.0000000E+000	-1.59428	0.0000000E+000	0.0000000E+000	0.0000000E+000	1.59428	35.9291	88.4057	-0.00141453
41.7501	0.106124	0.00142362	0.106133	-0.768559	1583.92	-0.000502572	-3.41154	2.67774e+06	481.783	2	37	0.00542848	0.0511477	0	-1.47334	0.325985	0.191537	5.64368	5.74739e-06	8.02234e-06	8.04256e-06	3.59659e-06	8.22567e-06	6.04831e-06	0.103771	0.0323647	0.397791	8.21328e-06	3.78924e-05	8.77644e-06	3.64846e-05	8.21872e-06	4.50738e-06	9.42125	0.126383	9.4221	0.768559	481785	3.59146e+07	3.59178e+07	-89.2314	0.0000000E+000	0.0000000E+000	0.0000000E+000	89.2314	0.0000000E+000	0.0000000E+000	0.0000000E+000	-89.2314	0.0000000E+000	0.0000000E+000	0.0000000E+000	-0.768559	0.0000000E+000	0.0000000E+000	0.0000000E+000	0.768559	74.5452	89.2314	-0.00110137
0.645874	0.110977	0.00659928	0.111173	-3.40309	1638.22	-0.000501575	-3.52401	3.73401e+07	131573	2	37	0.00543712	0.0489067	0	-1.52758	0.144229	0.0545731	1.00877	1.67664e-06	6.02308e-06	9.21017e-07	3.81236e-06	1.74533e-06	1.47757e-06	0.254543	0.351022	0.276668	7.40969e-05	7.55022e-05	3.60406e-05	3.10208e-05	1.37626e-05	1.1251e-05	8.9791	0.533944	8.99496	3.40309	1.31573e+08	2.21261e+09	2.21652e+09	-86.5969	0.0000000E+000	0.0000000E+000	0.0000000E+000	86.5969	0.0000000E+000	0.0000000E+000	0.0000000E+000	-86.5969	0.0000000E+000	0.0000000E+000	0.0000000E+000	-3.40309	0.0000000E+000	0.0000000E+000	0.0000000E+000	3.40309	16.8166	86.5969	-0.0102906
[...]
109811	0.0902877	-0.00738124	0.0905889	4.67368	4616.06	-0.00041621	-2.47917	-196.356	-1.30363	4	37	0.00523344	0.0577713	0	-0.00272459	-1	-1	-1	0	0	0	0	0	0	-1	-1	-1	0	0	0	0	0	0	11.0022	-0.899455	11.0389	-4.67368	-1303.63	15946	15999.2	-94.6737	0.0000000E+000	0.0000000E+000	0.0000000E+000	94.6737	0.0000000E+000	0.0000000E+000	0.0000000E+000	-94.6737	0.0000000E+000	0.0000000E+000	0.0000000E+000	4.67368	0.0000000E+000	0.0000000E+000	0.0000000E+000	-4.67368	12.232	85.3263	-0.000901906
1698.37	0.102655	0.00253083	0.102686	-1.41226	4638.31	-0.00053441	-3.34962	37027.7	22.4918	4	37	0.00512637	0.0499226	0	-0.020552	0.338515	0.162779	5.97052	5.19914e-06	7.11316e-06	9.17134e-06	6.79221e-06	5.37641e-06	5.3023e-06	0.0551387	0.0657511	0.398377	9.25255e-06	1.85861e-05	4.07703e-06	6.79896e-06	2.59472e-06	3.97076e-06	9.73542	0.240014	9.73838	1.41226	22491.8	912312	912589	-88.5877	0.0000000E+000	0.0000000E+000	0.0000000E+000	88.5877	0.0000000E+000	0.0000000E+000	0.0000000E+000	-88.5877	0.0000000E+000	0.0000000E+000	0.0000000E+000	-1.41226	0.0000000E+000	0.0000000E+000	0.0000000E+000	1.41226	40.562	88.5877	-0.00118803
26.2693	0.10614	0.00146597	0.10615	-0.791302	4660.31	-0.000514949	-3.48442	4.13282e+06	788.24	4	37	0.0051235	0.0482667	0	-0.0410354	0.714993	0.189087	5.81347	4.68547e-06	1.21614e-05	4.76483e-06	7.963e-06	5.91228e-06	3.12559e-05	0.106181	0.040834	0.403838	1.09804e-05	3.61244e-05	9.47787e-06	3.91565e-05	6.92371e-06	1.03421e-05	9.41976	0.130103	9.42066	0.791302	788243	5.70704e+07	5.70758e+07	-89.2087	0.0000000E+000	0.0000000E+000	0.0000000E+000	89.2087	0.0000000E+000	0.0000000E+000	0.0000000E+000	-89.2087	0.0000000E+000	0.0000000E+000	0.0000000E+000	-0.791302	0.0000000E+000	0.0000000E+000	0.0000000E+000	0.791302	72.4023	89.2087	-0.000981282
0.406108	0.111776	0.00851882	0.1121	-4.35827	4739.98	-0.000487459	-3.28301	4.60044e+07	265671	4	37	0.00512246	0.0456953	0	-0.117995	0.118355	0.0664526	0.865163	1.85919e-06	4.64852e-06	1.1527e-06	2.48266e-06	1.50092e-06	1.01972e-06	0.23458	0.0728754	0.162328	3.87421e-05	9.69567e-05	9.84256e-06	3.20494e-05	1.19107e-05	1.24514e-05	8.89479	0.677901	8.92059	4.35827	2.65671e+08	3.4859e+09	3.496e+09	-85.6417	0.0000000E+000	0.0000000E+000	0.0000000E+000	85.6417	0.0000000E+000	0.0000000E+000	0.0000000E+000	-85.6417	0.0000000E+000	0.0000000E+000	0.0000000E+000	-4.35827	0.0000000E+000	0.0000000E+000	0.0000000E+000	4.35827	13.1211	85.6417	-0.0202753
0.04008	0.14262	0.0165963	0.143582	-6.63752	5407.62	-0.00049286	-3.28131	2.39266e+08	3.19672e+06	4	37	0.00510985	0.0355883	0	-0.685044	0.1179	0.0851886	0.308372	2.79295e-06	3.53947e-06	1.61613e-06	2.83821e-06	1.16452e-06	1.06809e-06	0.151073	0.0836444	1.00418	1.65603e-05	3.22031e-05	1.81915e-05	3.57712e-05	1.54372e-05	1.34946e-05	6.91797	0.805028	6.96465	6.63752	3.19672e+09	2.74708e+10	2.76562e+10	-83.3625	0.0000000E+000	0.0000000E+000	0.0000000E+000	83.3625	0.0000000E+000	0.0000000E+000	0.0000000E+000	-83.3625	0.0000000E+000	0.0000000E+000	0.0000000E+000	-6.63752	0.0000000E+000	0.0000000E+000	0.0000000E+000	6.63752	8.59345	83.3625	-0.115132

File: 240503-EIS-Felt-1p5M_FeCl2FeCl3-1M_HCl-Wamup_10mLmin-4xFlowRate-20mHz_10ppd_03_PEIS_C15.mpt
EC-Lab ASCII FILE
Nb header lines : 75

Potentio Electrochemical Impedance Spectroscopy

Run on channel : 15 (SN 19485)
User :
Electrode connection : standard
Potential control : Ewe
Ewe ctrl range : min = -1.00 V, max = 1.00 V
Ewe,I filtering : 50 kHz
Safety Limits :
	Do not start on E overload
Channel : Grounded
Acquisition started on : 05/03/2024 14:39:22.131
Loaded Setting File :  NONE
Saved on :
	File : 240503-EIS-Felt-1p5M_FeCl2FeCl3-1M_HCl-Wamup_10mLmin-4xFlowRate-20mHz_10ppd_03_PEIS_C15.mpr
	Directory : C:\Data\mathias\IRFB\
	Host : 192.168.0.1
Device : VMP-300 (SN 0826)
Address : USB
EC-Lab for windows v11.52 (software)
Internet server v11.52 (firmware)
Command interpretor v11.52 (firmware)
Electrode material :
Initial state :
Electrolyte :
Comments :
Cable : special
Electrode surface area : 0.001 cm²
Characteristic mass : 0.001 g
Equivalent Weight : 0.000 g/eq.
Density : 0.000 g/cm3
Volume (V) : 0.001 cm³
Record EIS quality indicators
Cycle Definition : Charge/Discharge alternance
External device configuration :
   device type : Other
   device name : Other
   Analog OUT :
      mode : E/V
      unit : KNF Pump/ml/min
      max : 120.000 at 5.000 V
      min : 0.000 at 0.000 V
      current : 14.000
Mode                Single sine
E (V)               0.0000
vs.                 Eoc
tE (h:m:s)          0:10:0.0000
record              0
dI                  0.000
unit dI             mA
dt (s)              0.000
fi                  220.000
unit fi             kHz
ff                  20.000
unit ff             mHz
Nd                  10
Points              per decade
spacing             Logarithmic
Va (mV)             5.0
pw                  0.10
Na                  3
corr                0
E range min (V)     -1.000
E range max (V)     1.000
I Range             Auto
Bandwidth           8
nc cycles           2
goto Ns'            0
nr cycles           0
inc. cycle          0

freq/Hz	Re(Z)/Ohm	-Im(Z)/Ohm	|Z|/Ohm	Phase(Z)/deg	time/s	<Ewe>/V	<I>/mA	Cs/µF	Cp/µF	cycle number	I Range	|Ewe|/V	|I|/A	Ns	(Q-Qo)/mA.h	Analog OUT/V	THD Ewe/%	NSD Ewe/%	NSR Ewe/%	|Ewe h2|/V	|Ewe h3|/V	|Ewe h4|/V	|Ewe h5|/V	|Ewe h6|/V	|Ewe h7|/V	THD I/%	NSD I/%	NSR I/%	|I h2|/A	|I h3|/A	|I h4|/A	|I h5|/A	|I h6|/A	|I h7|/A	Re(Y)/Ohm-1	Im(Y)/Ohm-1	|Y|/Ohm-1	Phase(Y)/deg	Re(C)/nF	Im(C)/nF	|C|/nF	Phase(C)/deg	Re(M)	Im(M)	|M|	Phase(M)/deg	Re(Permittivity)	Im(Permittivity)	|Permittivity|	Phase(Permittivity)/deg	Re(Resistivity)/Ohm.cm	Im(Resistivity)/Ohm.cm	|Resistivity|/Ohm.cm	Phase(Resistivity)/deg	Re(Conductivity)/mS/cm	Im(Conductivity)/mS/cm	|Conductivity|/mS/cm	Phase(Conductivity)/deg	Tan(Delta)	Loss Angle(Delta)/deg	dq/mA.h
220003	0.0916909	-0.0195015	0.0937418	12.0072	248357	-0.000341964	-1.80457	-37.0958	-1.60544	1	37	0.0033081	0.0352894	0	-0.437884	14	-1	-1	-1	0	0	0	0	0	0	-1	-1	-1	0	0	0	0	0	0	10.4342	-2.21922	10.6676	-12.0072	-1605.44	7548.35	7717.18	-102.007	0.0000000E+000	0.0000000E+000	0.0000000E+000	102.007	0.0000000E+000	0.0000000E+000	0.0000000E+000	-102.007	0.0000000E+000	0.0000000E+000	0.0000000E+000	12.0072	0.0000000E+000	0.0000000E+000	0.0000000E+000	-12.0072	4.70174	77.9928	-0.437884
8590.41	0.108808	0.00657341	0.109007	-3.45719	248373	-0.000450602	-2.68753	2818.48	10.2492	1	37	0.00525784	0.048234	0	-0.446309	14	0.286111	0.154104	5.61342	7.15882e-06	5.96249e-06	8.28065e-06	4.69747e-06	2.44004e-06	3.89093e-06	0.105361	0.0583229	0.412859	1.59228e-05	4.66687e-05	2.50994e-06	1.00924e-05	5.33327e-06	1.67798e-06	9.15704	0.553202	9.17374	3.45719	10249.2	169653	169962	-86.5428	0.0000000E+000	0.0000000E+000	0.0000000E+000	86.5428	0.0000000E+000	0.0000000E+000	0.0000000E+000	-86.5428	0.0000000E+000	0.0000000E+000	0.0000000E+000	-3.45719	0.0000000E+000	0.0000000E+000	0.0000000E+000	3.45719	16.5528	86.5428	-0.000707549
335.537	0.119569	0.00255754	0.119596	-1.22535	248391	-0.000438877	-2.60383	185463	84.8137	1	37	0.00506451	0.0423467	0	-0.459497	14	0.285751	0.215369	5.93599	6.27532e-06	5.97977e-06	7.64286e-06	4.38787e-06	5.54467e-06	4.80725e-06	0.0815682	0.0155664	0.457172	6.92957e-06	2.85691e-05	2.84128e-06	1.41374e-05	8.94796e-06	4.70669e-06	8.35954	0.178808	8.36145	1.22535	84813.6	3.96517e+06	3.96608e+06	-88.7747	0.0000000E+000	0.0000000E+000	0.0000000E+000	88.7747	0.0000000E+000	0.0000000E+000	0.0000000E+000	-88.7747	0.0000000E+000	0.0000000E+000	0.0000000E+000	-1.22535	0.0000000E+000	0.0000000E+000	0.0000000E+000	1.22535	46.7516	88.7747	-0.00094153
13.1083	0.122056	0.00146059	0.122065	-0.685599	248407	-0.000411662	-2.52727	8.31282e+06	1190.21	1	37	0.00511806	0.0419291	0	-0.470609	14	0.417087	0.157398	4.0533	1.22789e-05	5.02554e-06	9.24833e-06	5.01233e-06	1.02656e-05	5.62017e-06	0.100302	0.0623558	0.331066	4.0166e-06	2.95912e-05	5.90895e-06	2.69362e-05	6.12183e-06	5.57626e-06	8.1918	0.0980274	8.19238	0.685599	1.19021e+06	9.94614e+07	9.94685e+07	-89.3144	0.0000000E+000	0.0000000E+000	0.0000000E+000	89.3144	0.0000000E+000	0.0000000E+000	0.0000000E+000	-89.3144	0.0000000E+000	0.0000000E+000	0.0000000E+000	-0.685599	0.0000000E+000	0.0000000E+000	0.0000000E+000	0.685599	83.5664	89.3144	-0.00103024
0.511825	0.125719	0.00630443	0.125877	-2.87081	248468	-0.000406802	-2.54124	4.93234e+07	123724	1	37	0.00511642	0.0406463	0	-0.515363	14	0.114733	0.0905304	0.950311	1.92598e-06	3.64017e-06	1.25672e-06	2.9487e-06	1.96665e-06	1.41664e-06	0.167394	0.0945143	0.195238	2.22827e-05	4.25395e-05	9.53225e-06	3.70396e-05	1.39607e-05	1.12034e-05	7.93431	0.397883	7.94428	2.87081	1.23724e+08	2.46722e+09	2.47032e+09	-87.1292	0.0000000E+000	0.0000000E+000	0.0000000E+000	87.1292	0.0000000E+000	0.0000000E+000	0.0000000E+000	-87.1292	0.0000000E+000	0.0000000E+000	0.0000000E+000	-2.87081	0.0000000E+000	0.0000000E+000	0.0000000E+000	2.87081	19.9413	87.1292	-0.0135927
0.0199946	0.156107	0.00691213	0.15626	-2.53529	249891	-0.000406579	-2.55664	1.15158e+09	2.25332e+06	1	37	0.00510543	0.0326726	0	-1.57189	14	0.100431	0.110791	0.238757	2.59318e-06	3.05764e-06	1.0602e-06	2.70931e-06	7.99042e-07	4.20957e-07	0.14019	0.122481	0.525957	2.42625e-05	2.33173e-05	4.11778e-06	2.90087e-05	6.53371e-06	2.49351e-06	6.39332	0.283084	6.39959	2.53529	2.25332e+09	5.08902e+10	5.09401e+10	-87.4647	0.0000000E+000	0.0000000E+000	0.0000000E+000	87.4647	0.0000000E+000	0.0000000E+000	0.0000000E+000	-87.4647	0.0000000E+000	0.0000000E+000	0.0000000E+000	-2.53529	0.0000000E+000	0.0000000E+000	0.0000000E+000	2.53529	22.5845	87.4647	-0.230896
10837.3	0.10743	0.00643428	0.107622	-3.42751	249907	-0.000307945	-1.73653	2282.44	8.15819	2	37	0.00514871	0.0478405	0	-1.57885	14	0.315624	0.240788	5.79554	6.43842e-06	5.75186e-06	4.36233e-06	6.93966e-06	8.28501e-06	6.02431e-06	0.0768921	0.0302528	0.401013	4.80712e-06	3.55803e-05	3.63142e-06	3.22252e-06	4.53274e-06	3.65837e-06	9.27512	0.555513	9.29174	3.42751	8158.19	136213	136457	-86.5725	0.0000000E+000	0.0000000E+000	0.0000000E+000	86.5725	0.0000000E+000	0.0000000E+000	0.0000000E+000	-86.5725	0.0000000E+000	0.0000000E+000	0.0000000E+000	-3.42751	0.0000000E+000	0.0000000E+000	0.0000000E+000	3.42751	16.6965	86.5725	-0.000478393
[...]
533.464	0.118861	0.00331551	0.118907	-1.5978	251459	-0.000393804	-2.51042	89984	69.9603	3	37	0.00509163	0.0428203	0	-2.62393	14	0.225547	0.170131	5.81289	4.64389e-06	6.83268e-06	2.44767e-06	3.86406e-06	3.24699e-06	4.75365e-06	0.0543469	0.0130123	0.456151	3.97103e-06	1.89233e-05	2.76715e-06	1.08006e-05	5.20658e-06	2.36256e-06	8.40668	0.234497	8.40995	1.5978	69960.4	2.50807e+06	2.50905e+06	-88.4022	0.0000000E+000	0.0000000E+000	0.0000000E+000	88.4022	0.0000000E+000	0.0000000E+000	0.0000000E+000	-88.4022	0.0000000E+000	0.0000000E+000	0.0000000E+000	-1.5978	0.0000000E+000	0.0000000E+000	0.0000000E+000	1.5978	35.8499	88.4022	-0.000942428
20.8333	0.121759	0.00138564	0.121767	-0.652012	251475	-0.000413377	-2.52027	5.51328e+06	713.933	3	37	0.00511402	0.0419986	0	-2.63552	14	0.257241	0.159817	5.81868	5.79723e-06	4.90855e-06	3.47497e-06	5.23952e-06	5.36984e-06	5.78446e-06	0.114035	0.0782056	0.457071	6.31796e-06	3.37496e-05	7.80205e-06	3.00019e-05	7.1969e-06	8.00354e-06	8.2119	0.0934536	8.21244	0.652012	713937	6.27344e+07	6.27384e+07	-89.348	0.0000000E+000	0.0000000E+000	0.0000000E+000	89.348	0.0000000E+000	0.0000000E+000	0.0000000E+000	-89.348	0.0000000E+000	0.0000000E+000	0.0000000E+000	-0.652012	0.0000000E+000	0.0000000E+000	0.0000000E+000	0.652012	87.8715	89.348	-0.000863719
0.813551	0.124728	0.00446529	0.124808	-2.05032	251516	-0.000407094	-2.51483	4.38113e+07	56078.9	3	37	0.00511891	0.0410142	0	-2.66357	14	0.124321	0.062068	1.19834	1.81215e-06	4.80722e-06	2.38823e-06	1.4373e-06	1.14242e-06	1.29711e-06	0.12644	0.144681	0.190917	2.46341e-05	3.28978e-05	8.29052e-06	2.8988e-05	5.41924e-06	5.28971e-06	8.00717	0.286658	8.0123	2.05032	5.60789e+07	1.56644e+09	1.56745e+09	-87.9497	0.0000000E+000	0.0000000E+000	0.0000000E+000	87.9497	0.0000000E+000	0.0000000E+000	0.0000000E+000	-87.9497	0.0000000E+000	0.0000000E+000	0.0000000E+000	-2.05032	0.0000000E+000	0.0000000E+000	0.0000000E+000	2.05032	27.9328	87.9497	-0.00379588
0.0317924	0.154043	0.0100477	0.15437	-3.73192	252414	-0.000419983	-2.62852	4.9823e+08	2.11074e+06	3	37	0.00510446	0.0330664	0	-3.31819	14	0.103886	0.108114	0.281848	1.7533e-06	3.63073e-06	1.48018e-06	2.17277e-06	1.46598e-06	6.14437e-07	0.147035	0.122714	0.504817	1.40865e-05	2.59685e-05	6.46816e-06	3.6019e-05	4.78702e-06	5.14317e-06	6.4642	0.421637	6.47793	3.73192	2.11074e+09	3.23602e+10	3.24289e+10	-86.2681	0.0000000E+000	0.0000000E+000	0.0000000E+000	86.2681	0.0000000E+000	0.0000000E+000	0.0000000E+000	-86.2681	0.0000000E+000	0.0000000E+000	0.0000000E+000	-3.73192	0.0000000E+000	0.0000000E+000	0.0000000E+000	3.73192	15.3312	86.2681	-0.125689
0.0199946	0.156151	0.00701224	0.156308	-2.57124	252962	-0.000421219	-2.62587	1.13514e+09	2.28454e+06	3	37	0.00510481	0.0326586	0	-3.62811	14	0.136454	0.177392	0.255288	3.4486e-06	3.42415e-06	1.34438e-06	3.14598e-06	2.2414e-06	8.75023e-07	0.152518	0.18231	0.515697	2.17742e-05	2.68514e-05	9.79607e-06	3.15879e-05	6.34416e-06	6.06842e-06	6.39116	0.287006	6.39761	2.57124	2.28454e+09	5.0873e+10	5.09243e+10	-87.4288	0.0000000E+000	0.0000000E+000	0.0000000E+000	87.4288	0.0000000E+000	0.0000000E+000	0.0000000E+000	-87.4288	0.0000000E+000	0.0000000E+000	0.0000000E+000	-2.57124	0.0000000E+000	0.0000000E+000	0.0000000E+000	2.57124	22.2684	87.4288	-0.174388