Folder: Thesis/Python/Experiments/IRFB/240503-Felt-1p5M_FeCl2FeCl3-1M_HCl/Data (part 3)

File: 240503-EIS-Felt-1p5M_FeCl2FeCl3-1M_HCl-Wamup_10mLmin-4xFlowRate-20mHz_10ppd_09_PEIS_C15.mpt
EC-Lab ASCII FILE
Nb header lines : 75

Potentio Electrochemical Impedance Spectroscopy

Run on channel : 15 (SN 19485)
User :
Electrode connection : standard
Potential control : Ewe
Ewe ctrl range : min = -1.00 V, max = 1.00 V
Ewe,I filtering : 50 kHz
Safety Limits :
	Do not start on E overload
Channel : Grounded
Acquisition started on : 05/03/2024 14:39:22.131
Loaded Setting File :  NONE
Saved on :
	File : 240503-EIS-Felt-1p5M_FeCl2FeCl3-1M_HCl-Wamup_10mLmin-4xFlowRate-20mHz_10ppd_09_PEIS_C15.mpr
	Directory : C:\Data\mathias\IRFB\
	Host : 192.168.0.1
Device : VMP-300 (SN 0826)
Address : USB
EC-Lab for windows v11.52 (software)
Internet server v11.52 (firmware)
Command interpretor v11.52 (firmware)
Electrode material :
Initial state :
Electrolyte :
Comments :
Cable : special
Electrode surface area : 0.001 cm²
Characteristic mass : 0.001 g
Equivalent Weight : 0.000 g/eq.
Density : 0.000 g/cm3
Volume (V) : 0.001 cm³
Record EIS quality indicators
Cycle Definition : Charge/Discharge alternance
External device configuration :
   device type : Other
   device name : Other
   Analog OUT :
      mode : E/V
      unit : KNF Pump/ml/min
      max : 120.000 at 5.000 V
      min : 0.000 at 0.000 V
      current : 14.000
Mode                Single sine
E (V)               0.0000
vs.                 Eoc
tE (h:m:s)          0:00:0.0000
record              0
dI                  0.000
unit dI             mA
dt (s)              0.000
fi                  220.000
unit fi             kHz
ff                  20.000
unit ff             mHz
Nd                  10
Points              per decade
spacing             Logarithmic
Va (mV)             5.0
pw                  0.10
Na                  3
corr                0
E range min (V)     -1.000
E range max (V)     1.000
I Range             Auto
Bandwidth           8
nc cycles           2
goto Ns'            0
nr cycles           0
inc. cycle          0

freq/Hz	Re(Z)/Ohm	-Im(Z)/Ohm	|Z|/Ohm	Phase(Z)/deg	time/s	<Ewe>/V	<I>/mA	Cs/µF	Cp/µF	cycle number	I Range	|Ewe|/V	|I|/A	Ns	(Q-Qo)/mA.h	Analog OUT/V	THD Ewe/%	NSD Ewe/%	NSR Ewe/%	|Ewe h2|/V	|Ewe h3|/V	|Ewe h4|/V	|Ewe h5|/V	|Ewe h6|/V	|Ewe h7|/V	THD I/%	NSD I/%	NSR I/%	|I h2|/A	|I h3|/A	|I h4|/A	|I h5|/A	|I h6|/A	|I h7|/A	Re(Y)/Ohm-1	Im(Y)/Ohm-1	|Y|/Ohm-1	Phase(Y)/deg	Re(C)/nF	Im(C)/nF	|C|/nF	Phase(C)/deg	Re(M)	Im(M)	|M|	Phase(M)/deg	Re(Permittivity)	Im(Permittivity)	|Permittivity|	Phase(Permittivity)/deg	Re(Resistivity)/Ohm.cm	Im(Resistivity)/Ohm.cm	|Resistivity|/Ohm.cm	Phase(Resistivity)/deg	Re(Conductivity)/mS/cm	Im(Conductivity)/mS/cm	|Conductivity|/mS/cm	Phase(Conductivity)/deg	Tan(Delta)	Loss Angle(Delta)/deg	dq/mA.h
220003	0.0905974	-0.0194448	0.0926606	12.1136	263977	-0.000321311	-2.20019	-37.2039	-1.63835	1	37	0.00327437	0.0353372	0	-0.000963727	120	-1	-1	-1	0	0	0	0	0	0	-1	-1	-1	0	0	0	0	0	0	10.5518	-2.26472	10.7921	-12.1136	-1638.35	7633.4	7807.24	-102.114	0.0000000E+000	0.0000000E+000	0.0000000E+000	102.114	0.0000000E+000	0.0000000E+000	0.0000000E+000	-102.114	0.0000000E+000	0.0000000E+000	0.0000000E+000	12.1136	0.0000000E+000	0.0000000E+000	0.0000000E+000	-12.1136	4.6592	77.8864	-0.000963727
8590.41	0.108054	0.00657876	0.108254	-3.48409	263993	-0.000439865	-3.17147	2816.19	10.4007	1	37	0.00525386	0.0485327	0	-0.0108582	120	0.319442	0.165102	5.64602	4.93314e-06	6.20481e-06	5.97691e-06	5.76439e-06	8.05358e-06	7.43211e-06	0.104145	0.0560223	0.41168	6.10874e-06	4.81546e-05	4.5513e-06	1.0557e-05	5.53993e-06	4.89665e-06	9.22044	0.561377	9.23752	3.48409	10400.7	170828	171144	-86.5159	0.0000000E+000	0.0000000E+000	0.0000000E+000	86.5159	0.0000000E+000	0.0000000E+000	0.0000000E+000	-86.5159	0.0000000E+000	0.0000000E+000	0.0000000E+000	-3.48409	0.0000000E+000	0.0000000E+000	0.0000000E+000	3.48409	16.4247	86.5159	-0.000866417
335.537	0.118788	0.00267864	0.118819	-1.29178	264011	-0.000398036	-3.15625	177078	89.9964	1	37	0.00506176	0.0426007	0	-0.0271228	120	0.347282	0.104517	5.87519	5.13897e-06	6.29055e-06	8.20858e-06	6.18211e-06	7.22569e-06	6.56829e-06	0.0673355	0.0194099	0.457211	4.87251e-06	2.2546e-05	5.76245e-06	1.14688e-05	9.06707e-06	4.60195e-06	8.41405	0.189734	8.41619	1.29178	89996.7	3.99103e+06	3.99204e+06	-88.7082	0.0000000E+000	0.0000000E+000	0.0000000E+000	88.7082	0.0000000E+000	0.0000000E+000	0.0000000E+000	-88.7082	0.0000000E+000	0.0000000E+000	0.0000000E+000	-1.29178	0.0000000E+000	0.0000000E+000	0.0000000E+000	1.29178	44.3465	88.7082	-0.00116905
13.1083	0.121133	0.0010296	0.121138	-0.486986	264027	-0.000403413	-3.08637	1.17925e+07	851.892	1	37	0.00511521	0.0422264	0	-0.0406595	120	0.264515	0.0749689	4.10769	6.84549e-06	5.60312e-06	3.73848e-06	7.50335e-06	4.27054e-06	3.29155e-06	0.11303	0.0559265	0.334228	8.89097e-06	3.23697e-05	3.04604e-06	3.21703e-05	5.86412e-06	6.90452e-06	8.25477	0.0701632	8.25507	0.486986	851889	1.00226e+08	1.0023e+08	-89.513	0.0000000E+000	0.0000000E+000	0.0000000E+000	89.513	0.0000000E+000	0.0000000E+000	0.0000000E+000	-89.513	0.0000000E+000	0.0000000E+000	0.0000000E+000	-0.486986	0.0000000E+000	0.0000000E+000	0.0000000E+000	0.486986	117.651	89.513	-0.000910958
0.511825	0.125739	0.00280684	0.12577	-1.27879	264087	-0.000398924	-3.2309	1.10785e+08	55177.2	1	37	0.00511621	0.040679	0	-0.0980571	120	0.110706	0.0759933	0.954724	2.50775e-06	3.42261e-06	1.43401e-06	2.8776e-06	1.16093e-06	9.39302e-07	0.114675	0.0674653	0.189663	1.06069e-05	2.88695e-05	9.70251e-06	3.00517e-05	7.48776e-06	8.19901e-06	7.94902	0.177444	7.951	1.27879	5.51771e+07	2.47179e+09	2.47241e+09	-88.7212	0.0000000E+000	0.0000000E+000	0.0000000E+000	88.7212	0.0000000E+000	0.0000000E+000	0.0000000E+000	-88.7212	0.0000000E+000	0.0000000E+000	0.0000000E+000	-1.27879	0.0000000E+000	0.0000000E+000	0.0000000E+000	1.27879	44.7974	88.7212	-0.0117698
0.0199946	0.126712	8.9905e-05	0.126712	-0.0406528	265511	-0.000424543	-3.16332	8.85367e+10	44571.6	1	37	0.00511777	0.0403891	0	-1.30128	120	0.0954255	0.138319	0.246061	1.48163e-06	2.79705e-06	1.10869e-06	2.69811e-06	1.413e-06	5.87885e-07	0.118197	0.148702	0.164496	1.43826e-05	2.57781e-05	6.87789e-06	3.42784e-05	7.4887e-06	9.55236e-06	7.89193	0.00559952	7.89193	0.0406528	4.45679e+07	6.2819e+10	6.2819e+10	-89.9594	0.0000000E+000	0.0000000E+000	0.0000000E+000	89.9594	0.0000000E+000	0.0000000E+000	0.0000000E+000	-89.9594	0.0000000E+000	0.0000000E+000	0.0000000E+000	-0.0406528	0.0000000E+000	0.0000000E+000	0.0000000E+000	0.0406528	1409.39	89.9594	-0.209091
10837.3	0.106031	0.00635677	0.106221	-3.43089	265527	-0.00032666	-2.09572	2310.27	8.27393	2	37	0.00515868	0.0485653	0	-1.3111	120	0.341041	0.233009	5.75896	8.12828e-06	8.00978e-06	5.91243e-06	3.78803e-06	5.32378e-06	7.95063e-06	0.0733109	0.0347349	0.396551	3.9195e-06	3.34196e-05	4.77807e-06	3.67747e-06	7.56377e-06	4.99247e-06	9.39742	0.563394	9.4143	3.43089	8273.93	138009	138257	-86.5691	0.0000000E+000	0.0000000E+000	0.0000000E+000	86.5691	0.0000000E+000	0.0000000E+000	0.0000000E+000	-86.5691	0.0000000E+000	0.0000000E+000	0.0000000E+000	-3.43089	0.0000000E+000	0.0000000E+000	0.0000000E+000	3.43089	16.68	86.5691	-0.00071667
[...]
533.464	0.117065	0.00327427	0.117111	-1.60213	267079	-0.00042266	-3.07836	91117.3	71.2257	3	37	0.00506554	0.0432543	0	-2.55537	120	0.284026	0.204229	5.89588	7.18121e-06	4.34973e-06	4.08673e-06	5.69872e-06	2.22765e-06	6.33568e-06	0.0568958	0.0192632	0.451387	5.11225e-06	1.72286e-05	4.75622e-06	1.36231e-05	6.25332e-06	2.29703e-06	8.53559	0.238738	8.53893	1.60213	71225.7	2.54653e+06	2.54753e+06	-88.3979	0.0000000E+000	0.0000000E+000	0.0000000E+000	88.3979	0.0000000E+000	0.0000000E+000	0.0000000E+000	-88.3979	0.0000000E+000	0.0000000E+000	0.0000000E+000	-1.60213	0.0000000E+000	0.0000000E+000	0.0000000E+000	1.60213	35.753	88.3979	-0.00107674
20.8333	0.119806	0.00102046	0.11981	-0.488012	267095	-0.000409518	-3.05802	7.48626e+06	543.088	3	37	0.00511955	0.0427304	0	-2.56854	120	0.365297	0.190154	5.7642	9.21759e-06	6.82863e-06	2.77706e-06	7.9665e-06	6.4986e-06	6.79397e-06	0.112383	0.0800853	0.449371	3.52033e-06	3.34661e-05	3.81364e-06	3.23691e-05	7.31719e-06	5.68922e-06	8.34623	0.07109	8.34653	0.488012	543091	6.37605e+07	6.37628e+07	-89.512	0.0000000E+000	0.0000000E+000	0.0000000E+000	89.512	0.0000000E+000	0.0000000E+000	0.0000000E+000	-89.512	0.0000000E+000	0.0000000E+000	0.0000000E+000	-0.488012	0.0000000E+000	0.0000000E+000	0.0000000E+000	0.488012	117.404	89.512	-0.000856669
0.813551	0.123082	0.0031081	0.123121	-1.44654	267136	-0.00040749	-3.08911	6.2942e+07	40111.3	3	37	0.00511912	0.041578	0	-2.60361	120	0.121717	0.0638406	1.20538	2.16312e-06	3.60168e-06	9.6894e-07	3.35655e-06	2.00286e-06	1.20703e-06	0.119438	0.0653967	0.193147	1.52783e-05	2.5832e-05	1.10681e-05	3.39461e-05	9.45232e-06	1.09257e-05	8.11951	0.205036	8.1221	1.44654	4.01112e+07	1.58842e+09	1.58892e+09	-88.5535	0.0000000E+000	0.0000000E+000	0.0000000E+000	88.5535	0.0000000E+000	0.0000000E+000	0.0000000E+000	-88.5535	0.0000000E+000	0.0000000E+000	0.0000000E+000	-1.44654	0.0000000E+000	0.0000000E+000	0.0000000E+000	1.44654	39.6003	88.5535	-0.00726359
0.0317924	0.126204	0.000275486	0.126204	-0.125069	268033	-0.000418098	-3.22412	1.81718e+10	86586.4	3	37	0.00511424	0.0405237	0	-3.3836	120	0.109907	0.155348	0.295551	2.46414e-06	3.29264e-06	1.10641e-06	3.07116e-06	1.7091e-06	6.47566e-07	0.117582	0.146281	0.174372	1.73134e-05	2.56246e-05	8.0703e-06	3.08371e-05	7.79061e-06	1.06216e-05	7.92367	0.0172963	7.92369	0.125069	8.65863e+07	3.96664e+10	3.96665e+10	-89.8749	0.0000000E+000	0.0000000E+000	0.0000000E+000	89.8749	0.0000000E+000	0.0000000E+000	0.0000000E+000	-89.8749	0.0000000E+000	0.0000000E+000	0.0000000E+000	-0.125069	0.0000000E+000	0.0000000E+000	0.0000000E+000	0.125069	458.113	89.8749	-0.193815
0.0199946	0.12624	0.000164835	0.12624	-0.0748126	268582	-0.000420202	-3.21164	4.82902e+10	82330.9	3	37	0.00511487	0.040517	0	-3.9703	120	0.116456	0.212351	0.244391	2.83101e-06	3.64549e-06	8.77195e-07	2.75311e-06	1.78339e-06	9.41908e-07	0.126151	0.1519	0.162269	1.61244e-05	3.00614e-05	8.01469e-06	3.11866e-05	8.34164e-06	7.38023e-06	7.92142	0.0103432	7.92143	0.0748126	8.23322e+07	6.30537e+10	6.30537e+10	-89.9252	0.0000000E+000	0.0000000E+000	0.0000000E+000	89.9252	0.0000000E+000	0.0000000E+000	0.0000000E+000	-89.9252	0.0000000E+000	0.0000000E+000	0.0000000E+000	-0.0748126	0.0000000E+000	0.0000000E+000	0.0000000E+000	0.0748126	765.857	89.9252	-0.321977