Folder: Thesis/Python/Experiments/IRFB/240503-Felt-1p5M_FeCl2FeCl3-1M_HCl/Data (part 2)

File: 240503-EIS-Felt-1p5M_FeCl2FeCl3-1M_HCl-Wamup_10mLmin-4xFlowRate-20mHz_10ppd_05_PEIS_C15.mpt
EC-Lab ASCII FILE
Nb header lines : 75

Potentio Electrochemical Impedance Spectroscopy

Run on channel : 15 (SN 19485)
User :
Electrode connection : standard
Potential control : Ewe
Ewe ctrl range : min = -1.00 V, max = 1.00 V
Ewe,I filtering : 50 kHz
Safety Limits :
	Do not start on E overload
Channel : Grounded
Acquisition started on : 05/03/2024 14:39:22.131
Loaded Setting File :  NONE
Saved on :
	File : 240503-EIS-Felt-1p5M_FeCl2FeCl3-1M_HCl-Wamup_10mLmin-4xFlowRate-20mHz_10ppd_05_PEIS_C15.mpr
	Directory : C:\Data\mathias\IRFB\
	Host : 192.168.0.1
Device : VMP-300 (SN 0826)
Address : USB
EC-Lab for windows v11.52 (software)
Internet server v11.52 (firmware)
Command interpretor v11.52 (firmware)
Electrode material :
Initial state :
Electrolyte :
Comments :
Cable : special
Electrode surface area : 0.001 cm²
Characteristic mass : 0.001 g
Equivalent Weight : 0.000 g/eq.
Density : 0.000 g/cm3
Volume (V) : 0.001 cm³
Record EIS quality indicators
Cycle Definition : Charge/Discharge alternance
External device configuration :
   device type : Other
   device name : Other
   Analog OUT :
      mode : E/V
      unit : KNF Pump/ml/min
      max : 120.000 at 5.000 V
      min : 0.000 at 0.000 V
      current : 14.000
Mode                Single sine
E (V)               0.0000
vs.                 Eoc
tE (h:m:s)          0:00:0.0000
record              0
dI                  0.000
unit dI             mA
dt (s)              0.000
fi                  220.000
unit fi             kHz
ff                  20.000
unit ff             mHz
Nd                  10
Points              per decade
spacing             Logarithmic
Va (mV)             5.0
pw                  0.10
Na                  3
corr                0
E range min (V)     -1.000
E range max (V)     1.000
I Range             Auto
Bandwidth           8
nc cycles           2
goto Ns'            0
nr cycles           0
inc. cycle          0

freq/Hz	Re(Z)/Ohm	-Im(Z)/Ohm	|Z|/Ohm	Phase(Z)/deg	time/s	<Ewe>/V	<I>/mA	Cs/µF	Cp/µF	cycle number	I Range	|Ewe|/V	|I|/A	Ns	(Q-Qo)/mA.h	Analog OUT/V	THD Ewe/%	NSD Ewe/%	NSR Ewe/%	|Ewe h2|/V	|Ewe h3|/V	|Ewe h4|/V	|Ewe h5|/V	|Ewe h6|/V	|Ewe h7|/V	THD I/%	NSD I/%	NSR I/%	|I h2|/A	|I h3|/A	|I h4|/A	|I h5|/A	|I h6|/A	|I h7|/A	Re(Y)/Ohm-1	Im(Y)/Ohm-1	|Y|/Ohm-1	Phase(Y)/deg	Re(C)/nF	Im(C)/nF	|C|/nF	Phase(C)/deg	Re(M)	Im(M)	|M|	Phase(M)/deg	Re(Permittivity)	Im(Permittivity)	|Permittivity|	Phase(Permittivity)/deg	Re(Resistivity)/Ohm.cm	Im(Resistivity)/Ohm.cm	|Resistivity|/Ohm.cm	Phase(Resistivity)/deg	Re(Conductivity)/mS/cm	Im(Conductivity)/mS/cm	|Conductivity|/mS/cm	Phase(Conductivity)/deg	Tan(Delta)	Loss Angle(Delta)/deg	dq/mA.h
220003	0.0914745	-0.0195464	0.0935395	12.0617	253564	-0.00031721	-2.00137	-37.0105	-1.6161	1	37	0.00330156	0.0352959	0	-0.000912396	25.4	-1	-1	-1	0	0	0	0	0	0	-1	-1	-1	0	0	0	0	0	0	10.4547	-2.23397	10.6907	-12.0617	-1616.1	7563.14	7733.88	-102.062	0.0000000E+000	0.0000000E+000	0.0000000E+000	102.062	0.0000000E+000	0.0000000E+000	0.0000000E+000	-102.062	0.0000000E+000	0.0000000E+000	0.0000000E+000	12.0617	0.0000000E+000	0.0000000E+000	0.0000000E+000	-12.0617	4.67986	77.9383	-0.000912396
8590.41	0.10879	0.00655385	0.108987	-3.44751	253579	-0.000429538	-2.78793	2826.9	10.2224	1	37	0.00524988	0.0481696	0	-0.00991321	25.4	0.302545	0.13931	5.67407	2.77738e-06	7.82808e-06	6.22664e-06	2.33484e-06	9.02557e-06	4.53075e-06	0.107129	0.053672	0.402499	4.63541e-06	4.82843e-05	7.17842e-06	1.3567e-05	6.52043e-06	2.19415e-06	9.15878	0.551754	9.17539	3.44751	10222.4	169685	169993	-86.5525	0.0000000E+000	0.0000000E+000	0.0000000E+000	86.5525	0.0000000E+000	0.0000000E+000	0.0000000E+000	-86.5525	0.0000000E+000	0.0000000E+000	0.0000000E+000	-3.44751	0.0000000E+000	0.0000000E+000	0.0000000E+000	3.44751	16.5994	86.5525	-0.000796526
335.537	0.119457	0.00251322	0.119483	-1.20525	253598	-0.000425344	-2.86774	188734	83.5019	1	37	0.00506073	0.0423552	0	-0.0243819	25.4	0.308425	0.188598	5.9549	4.40151e-06	4.33974e-06	8.40535e-06	6.45917e-06	6.74936e-06	3.56e-06	0.0600365	0.0178415	0.456323	4.36831e-06	1.90994e-05	2.7252e-06	1.31565e-05	7.38965e-06	3.69841e-06	8.36753	0.176042	8.36938	1.20525	83502	3.96896e+06	3.96984e+06	-88.7947	0.0000000E+000	0.0000000E+000	0.0000000E+000	88.7947	0.0000000E+000	0.0000000E+000	0.0000000E+000	-88.7947	0.0000000E+000	0.0000000E+000	0.0000000E+000	-1.20525	0.0000000E+000	0.0000000E+000	0.0000000E+000	1.20525	47.5314	88.7947	-0.00105688
13.1083	0.122102	0.00133385	0.122109	-0.625877	253613	-0.00038961	-2.76746	9.10268e+06	1086.14	1	37	0.00511926	0.0419236	0	-0.0364468	25.4	0.316073	0.250613	4.15261	7.10898e-06	6.68893e-06	3.89138e-06	3.09079e-06	9.87927e-06	3.15117e-06	0.114251	0.0644318	0.345224	7.29278e-06	3.27909e-05	6.84177e-06	3.10682e-05	2.74788e-06	9.73996e-06	8.1889	0.0894559	8.18939	0.625877	1.08614e+06	9.94262e+07	9.94322e+07	-89.3741	0.0000000E+000	0.0000000E+000	0.0000000E+000	89.3741	0.0000000E+000	0.0000000E+000	0.0000000E+000	-89.3741	0.0000000E+000	0.0000000E+000	0.0000000E+000	-0.625877	0.0000000E+000	0.0000000E+000	0.0000000E+000	0.625877	91.5412	89.3741	-0.00111424
0.511825	0.125553	0.00602195	0.125697	-2.746	253674	-0.0004158	-2.85255	5.16371e+07	118518	1	37	0.00511477	0.0406913	0	-0.0845679	25.4	0.128979	0.0503285	0.953932	2.61057e-06	4.62224e-06	1.70107e-06	1.71417e-06	1.79887e-06	1.37341e-06	0.156332	0.0401364	0.208707	5.57475e-06	4.9267e-05	7.48926e-06	3.37247e-05	7.35018e-06	1.15743e-05	7.94651	0.381142	7.95564	2.746	1.18518e+08	2.47101e+09	2.47385e+09	-87.254	0.0000000E+000	0.0000000E+000	0.0000000E+000	87.254	0.0000000E+000	0.0000000E+000	0.0000000E+000	-87.254	0.0000000E+000	0.0000000E+000	0.0000000E+000	-2.746	0.0000000E+000	0.0000000E+000	0.0000000E+000	2.746	20.8492	87.254	-0.0144045
0.0199946	0.142393	0.00202897	0.142408	-0.816354	255098	-0.00044158	-2.90096	3.92313e+09	796370	1	37	0.00510881	0.0358745	0	-1.25817	25.4	0.0997896	0.0902244	0.245497	1.08827e-06	4.14253e-06	1.18603e-06	2.09871e-06	7.23032e-07	5.47477e-07	0.121597	0.15119	0.287484	1.5691e-05	2.80122e-05	1.25067e-05	2.41871e-05	4.04724e-06	5.72133e-06	7.02138	0.100048	7.02209	0.816354	7.96369e+08	5.58894e+10	5.58951e+10	-89.1836	0.0000000E+000	0.0000000E+000	0.0000000E+000	89.1836	0.0000000E+000	0.0000000E+000	0.0000000E+000	-89.1836	0.0000000E+000	0.0000000E+000	0.0000000E+000	-0.816354	0.0000000E+000	0.0000000E+000	0.0000000E+000	0.816354	70.1802	89.1836	-0.262002
10837.3	0.107501	0.00656477	0.107701	-3.49456	255114	-0.00034586	-2.09898	2237.07	8.31152	2	37	0.00515126	0.0478293	0	-1.26706	25.4	0.362376	0.132283	5.81312	5.25247e-06	9.34575e-06	9.22852e-06	6.64328e-06	4.5315e-06	7.2499e-06	0.0763813	0.0314877	0.395889	6.60863e-06	3.41099e-05	3.48858e-06	7.73863e-06	3.35071e-06	4.83986e-06	9.26771	0.565954	9.28498	3.49456	8311.52	136104	136358	-86.5054	0.0000000E+000	0.0000000E+000	0.0000000E+000	86.5054	0.0000000E+000	0.0000000E+000	0.0000000E+000	-86.5054	0.0000000E+000	0.0000000E+000	0.0000000E+000	-3.49456	0.0000000E+000	0.0000000E+000	0.0000000E+000	3.49456	16.3754	86.5054	-0.00058944
[...]
533.464	0.118878	0.00325836	0.118923	-1.57004	256666	-0.000448235	-2.90265	91562.2	68.7358	3	37	0.00509239	0.0428209	0	-2.49444	25.4	0.265496	0.231308	5.92584	3.56608e-06	7.3915e-06	3.15879e-06	5.72031e-06	5.63877e-06	3.90129e-06	0.0596591	0.0147014	0.445532	5.66647e-06	1.82996e-05	5.73534e-06	1.08219e-05	8.80633e-06	5.20625e-06	8.40565	0.230392	8.40881	1.57004	68735.8	2.50776e+06	2.50871e+06	-88.43	0.0000000E+000	0.0000000E+000	0.0000000E+000	88.43	0.0000000E+000	0.0000000E+000	0.0000000E+000	-88.43	0.0000000E+000	0.0000000E+000	0.0000000E+000	-1.57004	0.0000000E+000	0.0000000E+000	0.0000000E+000	1.57004	36.4841	88.43	-0.00103408
20.8333	0.121985	0.00125682	0.121991	-0.590303	256682	-0.000457444	-2.99623	6.07838e+06	645.175	3	37	0.00511985	0.0419689	0	-2.50712	25.4	0.336806	0.196405	5.80059	6.03816e-06	9.06167e-06	3.03867e-06	6.07908e-06	7.78226e-06	7.41547e-06	0.117691	0.081794	0.459491	6.41943e-06	3.58075e-05	5.0105e-06	2.96633e-05	1.15128e-05	4.69513e-06	8.19686	0.0844531	8.1973	0.590303	645173	6.26195e+07	6.26228e+07	-89.4097	0.0000000E+000	0.0000000E+000	0.0000000E+000	89.4097	0.0000000E+000	0.0000000E+000	0.0000000E+000	-89.4097	0.0000000E+000	0.0000000E+000	0.0000000E+000	-0.590303	0.0000000E+000	0.0000000E+000	0.0000000E+000	0.590303	97.0582	89.4097	-0.000901097
0.813551	0.12465	0.00424335	0.124722	-1.94972	256723	-0.000416538	-2.79328	4.61027e+07	53365	3	37	0.00511793	0.0410346	0	-2.53883	25.4	0.115764	0.0628521	1.20902	1.57358e-06	3.77438e-06	1.56572e-06	2.59259e-06	1.94017e-06	1.70449e-06	0.125036	0.139585	0.189391	1.08492e-05	3.58683e-05	1.27326e-05	3.01744e-05	7.46534e-06	5.70674e-06	8.01318	0.272786	8.01782	1.94972	5.33649e+07	1.56762e+09	1.56853e+09	-88.0503	0.0000000E+000	0.0000000E+000	0.0000000E+000	88.0503	0.0000000E+000	0.0000000E+000	0.0000000E+000	-88.0503	0.0000000E+000	0.0000000E+000	0.0000000E+000	-1.94972	0.0000000E+000	0.0000000E+000	0.0000000E+000	1.94972	29.3754	88.0503	-0.00496371
0.0317924	0.142265	0.00332201	0.142303	-1.33767	257620	-0.000426255	-2.81749	1.50694e+09	821233	3	37	0.00510831	0.0358973	0	-3.2357	25.4	0.103624	0.161399	0.287719	2.37451e-06	3.21009e-06	1.57455e-06	2.27192e-06	1.7018e-06	9.03211e-07	0.124639	0.158172	0.288851	1.78145e-05	2.19766e-05	1.07605e-05	2.90453e-05	1.00966e-05	4.15321e-06	7.02532	0.164048	7.02723	1.33767	8.21235e+08	3.51692e+10	3.51788e+10	-88.6623	0.0000000E+000	0.0000000E+000	0.0000000E+000	88.6623	0.0000000E+000	0.0000000E+000	0.0000000E+000	-88.6623	0.0000000E+000	0.0000000E+000	0.0000000E+000	-1.33767	0.0000000E+000	0.0000000E+000	0.0000000E+000	1.33767	42.8249	88.6623	-0.179667
0.0199946	0.142361	0.00190979	0.142374	-0.768585	258168	-0.000443204	-2.89912	4.16794e+09	749954	3	37	0.00511015	0.0358925	0	-3.7308	25.4	0.102297	0.130784	0.24145	2.44993e-06	2.85044e-06	1.13326e-06	2.86394e-06	1.38678e-06	5.4446e-07	0.127258	0.137626	0.2974	1.37626e-05	2.33756e-05	1.05659e-05	3.2051e-05	4.70584e-06	8.5816e-06	7.02314	0.0942165	7.02378	0.768585	7.49954e+08	5.59035e+10	5.59085e+10	-89.2314	0.0000000E+000	0.0000000E+000	0.0000000E+000	89.2314	0.0000000E+000	0.0000000E+000	0.0000000E+000	-89.2314	0.0000000E+000	0.0000000E+000	0.0000000E+000	-0.768585	0.0000000E+000	0.0000000E+000	0.0000000E+000	0.768585	74.5426	89.2314	-0.266067

File: 240503-EIS-Felt-1p5M_FeCl2FeCl3-1M_HCl-Wamup_10mLmin-4xFlowRate-20mHz_10ppd_07_PEIS_C15.mpt
EC-Lab ASCII FILE
Nb header lines : 75

Potentio Electrochemical Impedance Spectroscopy

Run on channel : 15 (SN 19485)
User :
Electrode connection : standard
Potential control : Ewe
Ewe ctrl range : min = -1.00 V, max = 1.00 V
Ewe,I filtering : 50 kHz
Safety Limits :
	Do not start on E overload
Channel : Grounded
Acquisition started on : 05/03/2024 14:39:22.131
Loaded Setting File :  NONE
Saved on :
	File : 240503-EIS-Felt-1p5M_FeCl2FeCl3-1M_HCl-Wamup_10mLmin-4xFlowRate-20mHz_10ppd_07_PEIS_C15.mpr
	Directory : C:\Data\mathias\IRFB\
	Host : 192.168.0.1
Device : VMP-300 (SN 0826)
Address : USB
EC-Lab for windows v11.52 (software)
Internet server v11.52 (firmware)
Command interpretor v11.52 (firmware)
Electrode material :
Initial state :
Electrolyte :
Comments :
Cable : special
Electrode surface area : 0.001 cm²
Characteristic mass : 0.001 g
Equivalent Weight : 0.000 g/eq.
Density : 0.000 g/cm3
Volume (V) : 0.001 cm³
Record EIS quality indicators
Cycle Definition : Charge/Discharge alternance
External device configuration :
   device type : Other
   device name : Other
   Analog OUT :
      mode : E/V
      unit : KNF Pump/ml/min
      max : 120.000 at 5.000 V
      min : 0.000 at 0.000 V
      current : 14.000
Mode                Single sine
E (V)               0.0000
vs.                 Eoc
tE (h:m:s)          0:00:0.0000
record              0
dI                  0.000
unit dI             mA
dt (s)              0.000
fi                  220.000
unit fi             kHz
ff                  20.000
unit ff             mHz
Nd                  10
Points              per decade
spacing             Logarithmic
Va (mV)             5.0
pw                  0.10
Na                  3
corr                0
E range min (V)     -1.000
E range max (V)     1.000
I Range             Auto
Bandwidth           8
nc cycles           2
goto Ns'            0
nr cycles           0
inc. cycle          0

freq/Hz	Re(Z)/Ohm	-Im(Z)/Ohm	|Z|/Ohm	Phase(Z)/deg	time/s	<Ewe>/V	<I>/mA	Cs/µF	Cp/µF	cycle number	I Range	|Ewe|/V	|I|/A	Ns	(Q-Qo)/mA.h	Analog OUT/V	THD Ewe/%	NSD Ewe/%	NSR Ewe/%	|Ewe h2|/V	|Ewe h3|/V	|Ewe h4|/V	|Ewe h5|/V	|Ewe h6|/V	|Ewe h7|/V	THD I/%	NSD I/%	NSR I/%	|I h2|/A	|I h3|/A	|I h4|/A	|I h5|/A	|I h6|/A	|I h7|/A	Re(Y)/Ohm-1	Im(Y)/Ohm-1	|Y|/Ohm-1	Phase(Y)/deg	Re(C)/nF	Im(C)/nF	|C|/nF	Phase(C)/deg	Re(M)	Im(M)	|M|	Phase(M)/deg	Re(Permittivity)	Im(Permittivity)	|Permittivity|	Phase(Permittivity)/deg	Re(Resistivity)/Ohm.cm	Im(Resistivity)/Ohm.cm	|Resistivity|/Ohm.cm	Phase(Resistivity)/deg	Re(Conductivity)/mS/cm	Im(Conductivity)/mS/cm	|Conductivity|/mS/cm	Phase(Conductivity)/deg	Tan(Delta)	Loss Angle(Delta)/deg	dq/mA.h
220003	0.0911698	-0.0196603	0.0932656	12.1692	258770	-0.000322783	-2.29181	-36.7961	-1.63509	1	37	0.00329479	0.035327	0	-0.00101722	49	-1	-1	-1	0	0	0	0	0	0	-1	-1	-1	0	0	0	0	0	0	10.4811	-2.26021	10.7221	-12.1692	-1635.09	7582.29	7756.59	-102.169	0.0000000E+000	0.0000000E+000	0.0000000E+000	102.169	0.0000000E+000	0.0000000E+000	0.0000000E+000	-102.169	0.0000000E+000	0.0000000E+000	0.0000000E+000	12.1692	0.0000000E+000	0.0000000E+000	0.0000000E+000	-12.1692	4.63725	77.8308	-0.00101722
8590.41	0.108643	0.00657048	0.108841	-3.46091	258786	-0.000435708	-3.16133	2819.74	10.2758	1	37	0.00525856	0.048314	0	-0.0113196	49	0.374218	0.206523	5.73804	7.34411e-06	7.51182e-06	5.45786e-06	5.0521e-06	4.49427e-06	1.18427e-05	0.114671	0.0530188	0.404712	2.83575e-06	5.34004e-05	5.31261e-06	1.10576e-05	4.3274e-06	3.18768e-06	9.17093	0.554638	9.18769	3.46091	10275.8	169910	170221	-86.5391	0.0000000E+000	0.0000000E+000	0.0000000E+000	86.5391	0.0000000E+000	0.0000000E+000	0.0000000E+000	-86.5391	0.0000000E+000	0.0000000E+000	0.0000000E+000	-3.46091	0.0000000E+000	0.0000000E+000	0.0000000E+000	3.46091	16.535	86.5391	-0.00106588
335.537	0.119353	0.0027335	0.119384	-1.312	258804	-0.000377214	-3.09364	173524	90.9714	1	37	0.00506909	0.0424603	0	-0.0272528	49	0.324344	0.208427	5.91624	9.00293e-06	4.10727e-06	7.15878e-06	3.16075e-06	5.96622e-06	7.33228e-06	0.0586045	0.021215	0.46237	5.08452e-06	2.01975e-05	4.11398e-06	1.09474e-05	3.35793e-06	4.09119e-06	8.37412	0.19179	8.37631	1.312	90971.4	3.97209e+06	3.97313e+06	-88.688	0.0000000E+000	0.0000000E+000	0.0000000E+000	88.688	0.0000000E+000	0.0000000E+000	0.0000000E+000	-88.688	0.0000000E+000	0.0000000E+000	0.0000000E+000	-1.312	0.0000000E+000	0.0000000E+000	0.0000000E+000	1.312	43.663	88.688	-0.00113602
13.1083	0.121687	0.00118606	0.121692	-0.558433	258820	-0.000415362	-3.1701	1.02369e+07	972.418	1	37	0.00511496	0.0420318	0	-0.0405798	49	0.255098	0.133608	4.01979	4.04205e-06	4.665e-06	3.81957e-06	6.11637e-06	7.62799e-06	2.56481e-06	0.113105	0.0744127	0.345782	7.31903e-06	3.14421e-05	6.16312e-06	3.21774e-05	8.03376e-06	4.14285e-06	8.21704	0.0800899	8.21743	0.558433	972419	9.97679e+07	9.97726e+07	-89.4416	0.0000000E+000	0.0000000E+000	0.0000000E+000	89.4416	0.0000000E+000	0.0000000E+000	0.0000000E+000	-89.4416	0.0000000E+000	0.0000000E+000	0.0000000E+000	-0.558433	0.0000000E+000	0.0000000E+000	0.0000000E+000	0.558433	102.598	89.4416	-0.00124273
0.511825	0.125861	0.00531892	0.125973	-2.41989	258881	-0.000407583	-3.1072	5.84622e+07	104223	1	37	0.00511611	0.0406126	0	-0.0928578	49	0.111297	0.0695063	0.937427	2.12981e-06	3.95673e-06	5.39325e-07	2.69356e-06	1.70455e-06	1.01262e-06	0.122276	0.0702981	0.176245	1.04197e-05	3.35836e-05	4.32804e-06	3.08252e-05	7.01214e-06	1.17191e-05	7.93111	0.335171	7.93819	2.41989	1.04223e+08	2.46622e+09	2.46842e+09	-87.5801	0.0000000E+000	0.0000000E+000	0.0000000E+000	87.5801	0.0000000E+000	0.0000000E+000	0.0000000E+000	-87.5801	0.0000000E+000	0.0000000E+000	0.0000000E+000	-2.41989	0.0000000E+000	0.0000000E+000	0.0000000E+000	2.41989	23.6629	87.5801	-0.0143336
0.0199946	0.133231	0.000736756	0.133233	-0.316838	260304	-0.000423788	-2.98357	1.0804e+10	330376	1	37	0.00511533	0.0383939	0	-1.35777	49	0.109318	0.0886754	0.25472	1.92349e-06	3.4482e-06	1.27889e-06	2.94117e-06	1.54435e-06	1.13216e-06	0.122725	0.0807292	0.18743	1.543e-05	2.70388e-05	8.50114e-06	3.05175e-05	6.61684e-06	9.34875e-06	7.50554	0.0415051	7.50566	0.316838	3.30379e+08	5.97433e+10	5.97442e+10	-89.6832	0.0000000E+000	0.0000000E+000	0.0000000E+000	89.6832	0.0000000E+000	0.0000000E+000	0.0000000E+000	-89.6832	0.0000000E+000	0.0000000E+000	0.0000000E+000	-0.316838	0.0000000E+000	0.0000000E+000	0.0000000E+000	0.316838	180.834	89.6832	-0.29758
10837.3	0.106864	0.00637049	0.107053	-3.41155	260320	-0.000312941	-1.99331	2305.29	8.16341	2	37	0.00515664	0.0481688	0	-1.367	49	0.291513	0.226492	5.75807	3.21844e-06	4.49677e-06	6.38051e-06	5.68304e-06	4.66095e-06	6.61165e-06	0.0776623	0.0365398	0.403305	7.16446e-06	3.52379e-05	4.0686e-06	5.52304e-06	4.01191e-06	5.10702e-06	9.32458	0.555869	9.34113	3.41155	8163.41	136939	137183	-86.5884	0.0000000E+000	0.0000000E+000	0.0000000E+000	86.5884	0.0000000E+000	0.0000000E+000	0.0000000E+000	-86.5884	0.0000000E+000	0.0000000E+000	0.0000000E+000	-3.41155	0.0000000E+000	0.0000000E+000	0.0000000E+000	3.41155	16.7748	86.5884	-0.000662007
[...]
533.464	0.117915	0.00326307	0.11796	-1.58514	261873	-0.000430135	-2.94032	91429.9	69.9631	3	37	0.00507787	0.0430472	0	-2.59437	49	0.291445	0.154489	5.8998	5.01903e-06	5.26393e-06	5.15192e-06	6.44956e-06	5.62288e-06	6.07256e-06	0.0551563	0.0201991	0.4608	2.92664e-06	1.79039e-05	2.93132e-06	1.29503e-05	5.64122e-06	3.03558e-06	8.47417	0.234506	8.47742	1.58514	69963.1	2.52821e+06	2.52917e+06	-88.4149	0.0000000E+000	0.0000000E+000	0.0000000E+000	88.4149	0.0000000E+000	0.0000000E+000	0.0000000E+000	-88.4149	0.0000000E+000	0.0000000E+000	0.0000000E+000	-1.58514	0.0000000E+000	0.0000000E+000	0.0000000E+000	1.58514	36.1363	88.4149	-0.00114362
20.8333	0.120634	0.00106934	0.120639	-0.507878	261889	-0.000434944	-3.02673	7.14404e+06	561.315	3	37	0.00511065	0.0423633	0	-2.60734	49	0.307684	0.216069	5.85613	4.48129e-06	5.68452e-06	6.45061e-06	4.32253e-06	6.47622e-06	8.29319e-06	0.125648	0.0677475	0.459699	8.71414e-06	3.70806e-05	3.66208e-06	3.49287e-05	4.98894e-06	9.22305e-06	8.28889	0.0734759	8.28922	0.507878	561318	6.33225e+07	6.3325e+07	-89.4921	0.0000000E+000	0.0000000E+000	0.0000000E+000	89.4921	0.0000000E+000	0.0000000E+000	0.0000000E+000	-89.4921	0.0000000E+000	0.0000000E+000	0.0000000E+000	-0.507878	0.0000000E+000	0.0000000E+000	0.0000000E+000	0.507878	112.811	89.4921	-0.000818388
0.813551	0.1234	0.00400975	0.123465	-1.86111	261930	-0.000409848	-2.94507	4.87886e+07	51459.4	3	37	0.00511771	0.0414507	0	-2.6413	49	0.106669	0.0650917	1.20417	1.5565e-06	3.75959e-06	1.6647e-06	1.8644e-06	1.59569e-06	1.50308e-06	0.119733	0.0878007	0.181536	8.5619e-06	3.07988e-05	1.54778e-05	2.99762e-05	1.00047e-05	9.83128e-06	8.09519	0.263044	8.09946	1.86111	5.14593e+07	1.58366e+09	1.5845e+09	-88.1389	0.0000000E+000	0.0000000E+000	0.0000000E+000	88.1389	0.0000000E+000	0.0000000E+000	0.0000000E+000	-88.1389	0.0000000E+000	0.0000000E+000	0.0000000E+000	-1.86111	0.0000000E+000	0.0000000E+000	0.0000000E+000	1.86111	30.775	88.1389	-0.00746336
0.0317924	0.132698	0.00108359	0.132702	-0.467856	262827	-0.000425519	-3.00351	4.6199e+09	308037	3	37	0.00511487	0.038544	0	-3.38019	49	0.112063	0.134975	0.28625	2.56144e-06	3.52023e-06	1.17704e-06	2.76799e-06	1.63646e-06	8.41387e-07	0.124407	0.114772	0.186423	1.65313e-05	2.46698e-05	9.34912e-06	3.46087e-05	8.37735e-06	2.31279e-06	7.53542	0.0615328	7.53567	0.467856	3.08038e+08	3.77228e+10	3.7724e+10	-89.5321	0.0000000E+000	0.0000000E+000	0.0000000E+000	89.5321	0.0000000E+000	0.0000000E+000	0.0000000E+000	-89.5321	0.0000000E+000	0.0000000E+000	0.0000000E+000	-0.467856	0.0000000E+000	0.0000000E+000	0.0000000E+000	0.467856	122.462	89.5321	-0.181216
0.0199946	0.132781	0.000745772	0.132783	-0.321803	263375	-0.000432756	-2.96367	1.06734e+10	336691	3	37	0.0051138	0.0385125	0	-3.92831	49	0.104732	0.166607	0.255843	2.13019e-06	4.09414e-06	8.15954e-07	1.92227e-06	9.84996e-07	4.24762e-07	0.132596	0.141299	0.183302	1.83796e-05	3.68644e-05	6.81485e-06	2.61055e-05	6.23499e-06	5.0787e-06	7.53099	0.0422984	7.5311	0.321803	3.36688e+08	5.99459e+10	5.99468e+10	-89.6782	0.0000000E+000	0.0000000E+000	0.0000000E+000	89.6782	0.0000000E+000	0.0000000E+000	0.0000000E+000	-89.6782	0.0000000E+000	0.0000000E+000	0.0000000E+000	-0.321803	0.0000000E+000	0.0000000E+000	0.0000000E+000	0.321803	178.044	89.6782	-0.302116