Folder: Thesis/Python/ImpedanceDataOld/different flow rate_NIPS electrode_iron symmetric single-tank tests_0.5 M total iron_choose the cycle number=1/FTFF flow field

File: NoPattern_FTFF_ve=2 cms_EIS.mpt
EC-Lab ASCII FILE
Nb header lines : 66

Potentio Electrochemical Impedance Spectroscopy

Run on channel : 1 (SN 50780)
User :
CE vs. WE compliance from -10 V to 10 V
Electrode connection : standard
Potential control : Ewe
Ewe ctrl range : min = -10.00 V, max = 10.00 V
Safety Limits :
	Do not start on E overload
Acquisition started on : 02/13/2023 17:02:43.459
Loaded Setting File :  C:\Users\sto063\Documents\EC-Lab\Data\Baichen\Micormolding\20230213_denseNoPatternS3_FTFF\NoPattern_FTFF_05Fe_2MHCL_ve10cms_EIS_PCGA.mps
Saved on :
	File : NoPattern_FTFF_05Fe_2MHCL_ve2cms_EIS_PCGA_01_PEIS_C01.mpr
	Directory : C:\Users\sto063\Documents\EC-Lab\Data\Baichen\Micormolding\20230213_denseNoPatternS3_FTFF\
	Host : 131.155.90.158
Device : VSP-3e (SN .003050)
Address : USB
EC-Lab for windows v11.43 (software)
Internet server v11.40 (firmware)
Command interpretor v11.40 (firmware)
Electrode material :
Initial state :
Electrolyte :
Comments :
Electrode surface area : 0.001 cm2
Characteristic mass : 0.001 g
Equivalent Weight : 0.000 g/eq.
Density : 0.000 g/cm3
Volume (V) : 0.001 cm3
Cycle Definition : Charge/Discharge alternance
Mode                Single sine
E (V)               0.0000
vs.                 Eoc
tE (h:m:s)          0:00:0.0000
record              0
dI                  0.000
unit dI             mA
dt (s)              0.000
fi                  200.000
unit fi             kHz
ff                  4.000
unit ff             mHz
Nd                  8
Points              per decade
spacing             Logarithmic
Va (mV)             10.0
pw                  0.10
Na                  5
corr                0
E range min (V)     -10.000
E range max (V)     10.000
I Range             Auto
Bandwidth           5
nc cycles           0
goto Ns'            0
nr cycles           0
inc. cycle          0

Modify on : 02/13/2023 17:02
ff                  5.000

freq/Hz	Re(Z)/Ohm	-Im(Z)/Ohm	|Z|/Ohm	Phase(Z)/deg	time/s	<Ewe>/V	<I>/mA	Cs/uF	Cp/uF	cycle number	I Range	|Ewe|/V	|I|/A	Ns	(Q-Qo)/mA.h	Re(Y)/Ohm-1	Im(Y)/Ohm-1	|Y|/Ohm-1	Phase(Y)/deg	Re(C)/nF	Im(C)/nF	|C|/nF	Phase(C)/deg	Re(M)	Im(M)	|M|	Phase(M)/deg	Re(Permittivity)	Im(Permittivity)	|Permittivity|	Phase(Permittivity)/deg	Re(Resistivity)/Ohm.cm	Im(Resistivity)/Ohm.cm	|Resistivity|/Ohm.cm	Phase(Resistivity)/deg	Re(Conductivity)/mS/cm	Im(Conductivity)/mS/cm	|Conductivity|/mS/cm	Phase(Conductivity)/deg	Tan(Delta)	Loss Angle(Delta)/deg	dq/mA.h
199998	0.18903	-0.147684	0.239881	37.9996	1.73949	-0.000496684	-2.28658	-5.3884	-2.04238	1	9	0.000966634	0.00402964	0	-0.000962159	3.28502	-2.5665	4.16873	-37.9996	-2042.38	2614.16	3317.4	-128	0.0000000E+000	0.0000000E+000	0.0000000E+000	128	0.0000000E+000	0.0000000E+000	0.0000000E+000	-128	0.0000000E+000	0.0000000E+000	0.0000000E+000	37.9996	0.0000000E+000	0.0000000E+000	0.0000000E+000	-37.9996	-1.27996	-37.9996	-0.000962159
83636.4	0.201771	-0.0582749	0.210018	16.1096	4.34848	-0.000543627	-1.96305	-32.6545	-2.51415	1	9	0.0224548	0.106919	0	-0.00260536	4.57452	-1.3212	4.76149	-16.1096	-2514.15	8705.03	9060.82	-106.11	0.0000000E+000	0.0000000E+000	0.0000000E+000	106.11	0.0000000E+000	0.0000000E+000	0.0000000E+000	-106.11	0.0000000E+000	0.0000000E+000	0.0000000E+000	16.1096	0.0000000E+000	0.0000000E+000	0.0000000E+000	-16.1096	-3.46241	-16.1096	-0.000666225
34738.7	0.204116	-0.0210465	0.205198	5.88699	8.32748	-0.000398232	-1.25214	-217.684	-2.29002	1	9	0.00935382	0.0455844	0	-0.0042355	4.84764	-0.499843	4.87334	-5.88699	-2290.02	22209.4	22327.2	-95.887	0.0000000E+000	0.0000000E+000	0.0000000E+000	95.887	0.0000000E+000	0.0000000E+000	0.0000000E+000	-95.887	0.0000000E+000	0.0000000E+000	0.0000000E+000	5.88699	0.0000000E+000	0.0000000E+000	0.0000000E+000	-5.88699	-9.69833	-5.88699	-0.00032948
14474.5	0.207183	-0.00527149	0.207251	1.4575	10.7995	-0.000386514	-1.19075	-2085.86	-1.34946	1	9	0.0104487	0.050416	0	-0.00511622	4.82352	-0.122728	4.82508	-1.4575	-1349.46	53037.3	53054.5	-91.4575	0.0000000E+000	0.0000000E+000	0.0000000E+000	91.4575	0.0000000E+000	0.0000000E+000	0.0000000E+000	-91.4575	0.0000000E+000	0.0000000E+000	0.0000000E+000	1.4575	0.0000000E+000	0.0000000E+000	0.0000000E+000	-1.4575	-39.3026	-1.4575	-0.000316009
6032.66	0.210514	0.000907661	0.210516	-0.247037	13.716	-0.000382863	-1.08539	29066.2	0.540337	1	9	0.0102572	0.0487239	0	-0.0060735	4.75019	0.0204811	4.75023	0.247037	540.343	125321	125322	-89.753	0.0000000E+000	0.0000000E+000	0.0000000E+000	89.753	0.0000000E+000	0.0000000E+000	0.0000000E+000	-89.753	0.0000000E+000	0.0000000E+000	0.0000000E+000	-0.247037	0.0000000E+000	0.0000000E+000	0.0000000E+000	0.247037	231.93	0.247037	-0.000424727
2515.81	0.213566	0.00272372	0.213583	-0.730683	17.5067	-0.000369972	-1.0247	23226.4	3.7772	1	9	0.0101861	0.0476916	0	-0.00707632	4.68163	0.0597072	4.68201	0.730683	3777.2	296169	296194	-89.2693	0.0000000E+000	0.0000000E+000	0.0000000E+000	89.2693	0.0000000E+000	0.0000000E+000	0.0000000E+000	-89.2693	0.0000000E+000	0.0000000E+000	0.0000000E+000	-0.730683	0.0000000E+000	0.0000000E+000	0.0000000E+000	0.730683	78.4098	0.730683	-0.000374972
1047.65	0.215915	0.00292571	0.215935	-0.776326	20.8582	-0.000362707	-1.02012	51924.3	9.53207	1	9	0.0105724	0.0489612	0	-0.00804509	4.63059	0.0627458	4.63102	0.776326	9532.11	703460	703524	-89.2237	0.0000000E+000	0.0000000E+000	0.0000000E+000	89.2237	0.0000000E+000	0.0000000E+000	0.0000000E+000	-89.2237	0.0000000E+000	0.0000000E+000	0.0000000E+000	-0.776326	0.0000000E+000	0.0000000E+000	0.0000000E+000	0.776326	73.7992	0.776326	-0.000342666
436.817	0.21744	0.00283987	0.217458	-0.748268	24.2039	-0.00037448	-1.03338	128299	21.881	1	9	0.0106287	0.0488771	0	-0.00908161	4.59819	0.0600546	4.59858	0.748268	21881	1.67536e+06	1.6755e+06	-89.2517	0.0000000E+000	0.0000000E+000	0.0000000E+000	89.2517	0.0000000E+000	0.0000000E+000	0.0000000E+000	-89.2517	0.0000000E+000	0.0000000E+000	0.0000000E+000	-0.748268	0.0000000E+000	0.0000000E+000	0.0000000E+000	0.748268	76.5668	0.748268	-0.000345919
182.157	0.218827	0.00318396	0.21885	-0.833602	27.5404	-0.000387204	-1.04158	274415	58.083	1	9	0.0106379	0.0486081	0	-0.0100515	4.56886	0.0664774	4.56934	0.833602	58083.1	3.99192e+06	3.99235e+06	-89.1664	0.0000000E+000	0.0000000E+000	0.0000000E+000	89.1664	0.0000000E+000	0.0000000E+000	0.0000000E+000	-89.1664	0.0000000E+000	0.0000000E+000	0.0000000E+000	-0.833602	0.0000000E+000	0.0000000E+000	0.0000000E+000	0.833602	68.7279	0.833602	-0.000363584
75.8986	0.220514	0.00386411	0.220548	-1.0039	30.8554	-0.000392028	-1.01709	542672	166.583	1	9	0.0106428	0.0482565	0	-0.0110792	4.53347	0.079441	4.53417	1.0039	166584	9.50643e+06	9.50789e+06	-88.9961	0.0000000E+000	0.0000000E+000	0.0000000E+000	88.9961	0.0000000E+000	0.0000000E+000	0.0000000E+000	-88.9961	0.0000000E+000	0.0000000E+000	0.0000000E+000	-1.0039	0.0000000E+000	0.0000000E+000	0.0000000E+000	1.0039	57.0672	1.0039	-0.00031176
31.6296	0.222497	0.00545704	0.222564	-1.40498	34.0655	-0.0003878	-1.01704	922082	554.338	1	9	0.0106365	0.047791	0	-0.0120094	4.49174	0.110166	4.49309	1.40498	554338	2.26017e+07	2.26085e+07	-88.595	0.0000000E+000	0.0000000E+000	0.0000000E+000	88.595	0.0000000E+000	0.0000000E+000	0.0000000E+000	-88.595	0.0000000E+000	0.0000000E+000	0.0000000E+000	-1.40498	0.0000000E+000	0.0000000E+000	0.0000000E+000	1.40498	40.7725	1.40498	-0.000393563
[...]
2.28703	0.23677	0.0183374	0.237479	-4.42861	46.1102	-0.000379445	-1.00518	3.79499e+06	22627.4	1	9	0.0106397	0.0448028	0	-0.0145941	4.19833	0.325152	4.2109	4.42861	2.26274e+07	2.92162e+08	2.93037e+08	-85.5714	0.0000000E+000	0.0000000E+000	0.0000000E+000	85.5714	0.0000000E+000	0.0000000E+000	0.0000000E+000	-85.5714	0.0000000E+000	0.0000000E+000	0.0000000E+000	-4.42861	0.0000000E+000	0.0000000E+000	0.0000000E+000	4.42861	12.9119	4.42861	0.0006653
0.953907	0.247541	0.0270619	0.249016	-6.23897	59.7697	-0.000357358	-0.995005	6.16532e+06	72814.8	1	10	0.0106389	0.0427237	0	-0.0206262	3.99203	0.436421	4.01581	6.23897	7.28148e+07	6.66051e+08	6.70019e+08	-83.761	0.0000000E+000	0.0000000E+000	0.0000000E+000	83.761	0.0000000E+000	0.0000000E+000	0.0000000E+000	-83.761	0.0000000E+000	0.0000000E+000	0.0000000E+000	-6.23897	0.0000000E+000	0.0000000E+000	0.0000000E+000	6.23897	9.1472	6.23897	-0.00255313
0.397745	0.263877	0.0392016	0.266773	-8.45006	89.5826	-0.000369556	-0.951267	1.02073e+07	220412	1	10	0.0106381	0.039877	0	-0.0226179	3.70782	0.550833	3.74851	8.45006	2.20412e+08	1.48366e+09	1.49994e+09	-81.5499	0.0000000E+000	0.0000000E+000	0.0000000E+000	81.5499	0.0000000E+000	0.0000000E+000	0.0000000E+000	-81.5499	0.0000000E+000	0.0000000E+000	0.0000000E+000	-8.45006	0.0000000E+000	0.0000000E+000	0.0000000E+000	8.45006	6.73128	8.45006	-0.00166737
0.165554	0.284713	0.0572385	0.29041	-11.3672	160.784	-0.000362181	-0.885511	1.67955e+07	652447	1	10	0.010639	0.0366345	0	-0.0536383	3.37586	0.67868	3.44341	11.3672	6.52447e+08	3.24538e+09	3.31031e+09	-78.6328	0.0000000E+000	0.0000000E+000	0.0000000E+000	78.6328	0.0000000E+000	0.0000000E+000	0.0000000E+000	-78.6328	0.0000000E+000	0.0000000E+000	0.0000000E+000	-11.3672	0.0000000E+000	0.0000000E+000	0.0000000E+000	11.3672	4.97416	11.3672	-0.0141904
0.0690785	0.319534	0.0934309	0.332913	-16.2988	331.238	-0.000365996	-0.740311	2.46597e+07	1.94225e+06	1	10	0.0106426	0.031968	0	-0.0810191	2.88307	0.843	3.00378	16.2988	1.94225e+09	6.64251e+09	6.92064e+09	-73.7012	0.0000000E+000	0.0000000E+000	0.0000000E+000	73.7012	0.0000000E+000	0.0000000E+000	0.0000000E+000	-73.7012	0.0000000E+000	0.0000000E+000	0.0000000E+000	-16.2988	0.0000000E+000	0.0000000E+000	0.0000000E+000	16.2988	3.42001	16.2988	-0.00456112
0.0288152	0.40358	0.13032	0.424099	-17.8958	739.943	-0.000364408	-0.707957	4.23826e+07	4.00197e+06	1	10	0.0106394	0.0250871	0	-0.142778	2.24386	0.724563	2.35794	17.8958	4.00197e+09	1.23935e+10	1.30236e+10	-72.1042	0.0000000E+000	0.0000000E+000	0.0000000E+000	72.1042	0.0000000E+000	0.0000000E+000	0.0000000E+000	-72.1042	0.0000000E+000	0.0000000E+000	0.0000000E+000	-17.8958	0.0000000E+000	0.0000000E+000	0.0000000E+000	17.8958	3.09684	17.8958	-0.0414669
0.0120032	0.499404	0.10013	0.509343	-11.3375	1721.45	-0.000363831	-0.681796	1.32421e+08	5.1176e+06	1	10	0.0106385	0.0208867	0	-0.432304	1.925	0.385963	1.96331	11.3375	5.1176e+09	2.55242e+10	2.60322e+10	-78.6625	0.0000000E+000	0.0000000E+000	0.0000000E+000	78.6625	0.0000000E+000	0.0000000E+000	0.0000000E+000	-78.6625	0.0000000E+000	0.0000000E+000	0.0000000E+000	-11.3375	0.0000000E+000	0.0000000E+000	0.0000000E+000	11.3375	4.98754	11.3375	-0.118371
0.00500189	0.527343	0.0507146	0.529776	-5.49324	4073.97	-0.000359545	-0.673587	6.27413e+08	5.74956e+06	1	10	0.0106395	0.0200829	0	-0.772498	1.87892	0.180696	1.88759	5.49324	5.74955e+09	5.97853e+10	6.00612e+10	-84.5068	0.0000000E+000	0.0000000E+000	0.0000000E+000	84.5068	0.0000000E+000	0.0000000E+000	0.0000000E+000	-84.5068	0.0000000E+000	0.0000000E+000	0.0000000E+000	-5.49324	0.0000000E+000	0.0000000E+000	0.0000000E+000	5.49324	10.3983	5.49324	-0.0963359

File: NoPattern_FTFF_ve=5 cms_EIS.mpt
EC-Lab ASCII FILE
Nb header lines : 72

Potentio Electrochemical Impedance Spectroscopy

Run on channel : 1 (SN 50780)
User :
CE vs. WE compliance from -10 V to 10 V
Electrode connection : standard
Potential control : Ewe
Ewe ctrl range : min = -10.00 V, max = 10.00 V
Safety Limits :
	Do not start on E overload
Acquisition started on : 02/13/2023 16:02:39.721
Loaded Setting File :  C:\Users\sto063\Documents\EC-Lab\Data\Baichen\Micormolding\20230213_denseNoPatternS3_FTFF\NoPattern_FTFF_05Fe_2MHCL_ve10cms_EIS_PCGA.mps
Saved on :
	File : NoPattern_FTFF_05Fe_2MHCL_ve5cms_EIS_PCGA_01_PEIS_C01.mpr
	Directory : C:\Users\sto063\Documents\EC-Lab\Data\Baichen\Micormolding\20230213_denseNoPatternS3_FTFF\
	Host : 131.155.90.158
Device : VSP-3e (SN .003050)
Address : USB
EC-Lab for windows v11.43 (software)
Internet server v11.40 (firmware)
Command interpretor v11.40 (firmware)
Electrode material :
Initial state :
Electrolyte :
Comments :
Electrode surface area : 0.001 cm2
Characteristic mass : 0.001 g
Equivalent Weight : 0.000 g/eq.
Density : 0.000 g/cm3
Volume (V) : 0.001 cm3
Cycle Definition : Charge/Discharge alternance
Mode                Single sine
E (V)               0.0000
vs.                 Eoc
tE (h:m:s)          0:00:0.0000
record              0
dI                  0.000
unit dI             mA
dt (s)              0.000
fi                  200.000
unit fi             kHz
ff                  4.000
unit ff             mHz
Nd                  8
Points              per decade
spacing             Logarithmic
Va (mV)             10.0
pw                  0.10
Na                  5
corr                0
E range min (V)     -10.000
E range max (V)     10.000
I Range             Auto
Bandwidth           5
nc cycles           0
goto Ns'            0
nr cycles           0
inc. cycle          0

Modify on : 02/13/2023 16:03
ff                  5.000

Modify on : 02/13/2023 16:17
ff                  7.000

Modify on : 02/13/2023 16:17
ff                  8.000

freq/Hz	Re(Z)/Ohm	-Im(Z)/Ohm	|Z|/Ohm	Phase(Z)/deg	time/s	<Ewe>/V	<I>/mA	Cs/uF	Cp/uF	cycle number	I Range	|Ewe|/V	|I|/A	Ns	(Q-Qo)/mA.h	Re(Y)/Ohm-1	Im(Y)/Ohm-1	|Y|/Ohm-1	Phase(Y)/deg	Re(C)/nF	Im(C)/nF	|C|/nF	Phase(C)/deg	Re(M)	Im(M)	|M|	Phase(M)/deg	Re(Permittivity)	Im(Permittivity)	|Permittivity|	Phase(Permittivity)/deg	Re(Resistivity)/Ohm.cm	Im(Resistivity)/Ohm.cm	|Resistivity|/Ohm.cm	Phase(Resistivity)/deg	Re(Conductivity)/mS/cm	Im(Conductivity)/mS/cm	|Conductivity|/mS/cm	Phase(Conductivity)/deg	Tan(Delta)	Loss Angle(Delta)/deg	dq/mA.h
199998	0.202986	-0.146025	0.250053	35.7307	1.7395	-0.00111893	-3.34098	-5.44963	-1.85848	1	9	0.00104234	0.00416847	0	-0.00134439	3.2464	-2.33541	3.99916	-35.7307	-1858.48	2583.42	3182.46	-125.731	0.0000000E+000	0.0000000E+000	0.0000000E+000	125.731	0.0000000E+000	0.0000000E+000	0.0000000E+000	-125.731	0.0000000E+000	0.0000000E+000	0.0000000E+000	35.7307	0.0000000E+000	0.0000000E+000	0.0000000E+000	-35.7307	-1.39007	-35.7307	-0.00134439
83636.4	0.215196	-0.0574376	0.22273	14.9443	4.34848	-0.00116781	-3.06692	-33.1306	-2.20326	1	9	0.0239331	0.107453	0	-0.00372185	4.33789	-1.15782	4.48975	-14.9443	-2203.26	8254.74	8543.72	-104.944	0.0000000E+000	0.0000000E+000	0.0000000E+000	104.944	0.0000000E+000	0.0000000E+000	0.0000000E+000	-104.944	0.0000000E+000	0.0000000E+000	0.0000000E+000	14.9443	0.0000000E+000	0.0000000E+000	0.0000000E+000	-14.9443	-3.74661	-14.9443	-0.000902273
34970.7	0.217039	-0.0215644	0.218108	5.67413	8.32749	-0.000994842	-2.47196	-211.046	-2.06305	1	9	0.00924291	0.0423776	0	-0.00663283	4.56242	-0.453309	4.58488	-5.67413	-2063.06	20764	20866.2	-95.6741	0.0000000E+000	0.0000000E+000	0.0000000E+000	95.6741	0.0000000E+000	0.0000000E+000	0.0000000E+000	-95.6741	0.0000000E+000	0.0000000E+000	0.0000000E+000	5.67413	0.0000000E+000	0.0000000E+000	0.0000000E+000	-5.67413	-10.0647	-5.67413	-0.000531793
14622.9	0.219502	-0.00625882	0.219591	1.63328	10.7995	-0.000981728	-2.42791	-1738.97	-1.4127	1	9	0.0104639	0.0476517	0	-0.00822607	4.55207	-0.129797	4.55392	-1.63328	-1412.7	49544.5	49564.6	-91.6333	0.0000000E+000	0.0000000E+000	0.0000000E+000	91.6333	0.0000000E+000	0.0000000E+000	0.0000000E+000	-91.6333	0.0000000E+000	0.0000000E+000	0.0000000E+000	1.63328	0.0000000E+000	0.0000000E+000	0.0000000E+000	-1.63328	-35.0708	-1.63328	-0.000529252
6115.42	0.221841	-0.00046173	0.221841	0.119253	13.6927	-0.00100589	-2.38779	-56364.5	-0.244173	1	9	0.0102364	0.0461427	0	-0.010322	4.50772	-0.00938217	4.50773	-0.119253	-244.177	117314	117314	-90.1193	0.0000000E+000	0.0000000E+000	0.0000000E+000	90.1193	0.0000000E+000	0.0000000E+000	0.0000000E+000	-90.1193	0.0000000E+000	0.0000000E+000	0.0000000E+000	0.119253	0.0000000E+000	0.0000000E+000	0.0000000E+000	-0.119253	-480.456	-0.119253	-0.000787454
2567.54	0.223607	0.0016482	0.223613	-0.422318	17.484	-0.00098685	-2.35586	37609.2	2.04325	1	9	0.0101961	0.0455972	0	-0.0128457	4.4719	0.0329623	4.47202	0.422318	2043.24	277201	277209	-89.5777	0.0000000E+000	0.0000000E+000	0.0000000E+000	89.5777	0.0000000E+000	0.0000000E+000	0.0000000E+000	-89.5777	0.0000000E+000	0.0000000E+000	0.0000000E+000	-0.422318	0.0000000E+000	0.0000000E+000	0.0000000E+000	0.422318	135.667	0.422318	-0.000898837
1068.97	0.225277	0.00207366	0.225286	-0.527389	20.8319	-0.000987148	-2.34329	71798.6	6.08304	1	9	0.0105659	0.0468999	0	-0.0150753	4.43861	0.0408571	4.4388	0.527389	6083.05	660846	660874	-89.4726	0.0000000E+000	0.0000000E+000	0.0000000E+000	89.4726	0.0000000E+000	0.0000000E+000	0.0000000E+000	-89.4726	0.0000000E+000	0.0000000E+000	0.0000000E+000	-0.527389	0.0000000E+000	0.0000000E+000	0.0000000E+000	0.527389	108.637	0.527389	-0.000765447
447.434	0.226878	0.00232478	0.22689	-0.587079	24.1787	-0.000983572	-2.35381	153006	16.0636	1	9	0.0106293	0.0468478	0	-0.0172119	4.40719	0.0451596	4.40742	0.587079	16063.6	1.56766e+06	1.56775e+06	-89.4129	0.0000000E+000	0.0000000E+000	0.0000000E+000	89.4129	0.0000000E+000	0.0000000E+000	0.0000000E+000	-89.4129	0.0000000E+000	0.0000000E+000	0.0000000E+000	-0.587079	0.0000000E+000	0.0000000E+000	0.0000000E+000	0.587079	97.5913	0.587079	-0.000735174
186.974	0.227683	0.00280877	0.2277	-0.706782	27.5167	-0.00098074	-2.36321	303056	46.1133	1	9	0.0106388	0.046723	0	-0.0194766	4.3914	0.0541737	4.39174	0.706782	46113.1	3.73802e+06	3.7383e+06	-89.2932	0.0000000E+000	0.0000000E+000	0.0000000E+000	89.2932	0.0000000E+000	0.0000000E+000	0.0000000E+000	-89.2932	0.0000000E+000	0.0000000E+000	0.0000000E+000	-0.706782	0.0000000E+000	0.0000000E+000	0.0000000E+000	0.706782	81.0616	0.706782	-0.000781255
78.2228	0.228901	0.00374617	0.228932	-0.937614	30.8933	-0.000980349	-2.34965	543124	145.433	1	9	0.0106367	0.0464622	0	-0.0216973	4.36753	0.0714787	4.36812	0.937614	145433	8.88634e+06	8.88753e+06	-89.0624	0.0000000E+000	0.0000000E+000	0.0000000E+000	89.0624	0.0000000E+000	0.0000000E+000	0.0000000E+000	-89.0624	0.0000000E+000	0.0000000E+000	0.0000000E+000	-0.937614	0.0000000E+000	0.0000000E+000	0.0000000E+000	0.937614	61.1026	0.937614	-0.000750169
[...]
2.39354	0.244128	0.0166422	0.244694	-3.89982	46.6157	-0.00098105	-2.37457	3.9955e+06	18481.7	1	9	0.0106378	0.0434738	0	-0.0328598	4.07727	0.277947	4.08674	3.89982	1.84818e+07	2.71113e+08	2.71742e+08	-86.1002	0.0000000E+000	0.0000000E+000	0.0000000E+000	86.1002	0.0000000E+000	0.0000000E+000	0.0000000E+000	-86.1002	0.0000000E+000	0.0000000E+000	0.0000000E+000	-3.89982	0.0000000E+000	0.0000000E+000	0.0000000E+000	3.89982	14.6692	3.89982	-0.00241901
0.953907	0.253742	0.0241654	0.25489	-5.44023	59.7196	-0.000965765	-2.41879	6.90429e+06	62058.7	1	10	0.0106365	0.0417297	0	-0.0401131	3.90559	0.371954	3.92326	5.44023	6.20587e+07	6.51629e+08	6.54577e+08	-84.5598	0.0000000E+000	0.0000000E+000	0.0000000E+000	84.5598	0.0000000E+000	0.0000000E+000	0.0000000E+000	-84.5598	0.0000000E+000	0.0000000E+000	0.0000000E+000	-5.44023	0.0000000E+000	0.0000000E+000	0.0000000E+000	5.44023	10.5002	5.44023	-0.00507002
0.397745	0.268877	0.034571	0.27109	-7.32665	89.5326	-0.000967773	-2.39633	1.15745e+07	188235	1	10	0.0106382	0.0392425	0	-0.0621814	3.65869	0.470419	3.68881	7.32665	1.88235e+08	1.464e+09	1.47605e+09	-82.6733	0.0000000E+000	0.0000000E+000	0.0000000E+000	82.6733	0.0000000E+000	0.0000000E+000	0.0000000E+000	-82.6733	0.0000000E+000	0.0000000E+000	0.0000000E+000	-7.32665	0.0000000E+000	0.0000000E+000	0.0000000E+000	7.32665	7.77752	7.32665	-0.00716506
0.165554	0.288452	0.0481814	0.292449	-9.48281	160.734	-0.000970553	-2.4204	1.99527e+07	541577	1	10	0.0106368	0.0363714	0	-0.0998123	3.37268	0.563353	3.4194	9.48281	5.41577e+08	3.24232e+09	3.28723e+09	-80.5172	0.0000000E+000	0.0000000E+000	0.0000000E+000	80.5172	0.0000000E+000	0.0000000E+000	0.0000000E+000	-80.5172	0.0000000E+000	0.0000000E+000	0.0000000E+000	-9.48281	0.0000000E+000	0.0000000E+000	0.0000000E+000	9.48281	5.9868	9.48281	-0.019356
0.0690785	0.324932	0.0621053	0.330814	-10.8206	331.188	-0.000964037	-2.42336	3.70978e+07	1.30749e+06	1	10	0.0106302	0.0321334	0	-0.24232	2.9691	0.567494	3.02285	10.8206	1.30749e+09	6.84073e+09	6.96456e+09	-79.1794	0.0000000E+000	0.0000000E+000	0.0000000E+000	79.1794	0.0000000E+000	0.0000000E+000	0.0000000E+000	-79.1794	0.0000000E+000	0.0000000E+000	0.0000000E+000	-10.8206	0.0000000E+000	0.0000000E+000	0.0000000E+000	10.8206	5.23195	10.8206	-0.0623476
0.0288152	0.367507	0.0516959	0.371125	-8.00705	739.894	-0.000971109	-2.39244	1.06842e+08	2.07307e+06	1	10	0.0106382	0.0286648	0	-0.489147	2.66824	0.375332	2.69451	8.00705	2.07307e+09	1.47375e+10	1.48826e+10	-81.9929	0.0000000E+000	0.0000000E+000	0.0000000E+000	81.9929	0.0000000E+000	0.0000000E+000	0.0000000E+000	-81.9929	0.0000000E+000	0.0000000E+000	0.0000000E+000	-8.00705	0.0000000E+000	0.0000000E+000	0.0000000E+000	8.00705	7.10902	8.00705	-0.0933502
0.0142408	0.38389	0.0323618	0.385251	-4.81862	1595.84	-0.000974967	-2.42068	3.45345e+08	2.43686e+06	1	10	0.0106386	0.0276148	0	-0.993333	2.58653	0.218044	2.59571	4.81862	2.43686e+09	2.89071e+10	2.90096e+10	-85.1814	0.0000000E+000	0.0000000E+000	0.0000000E+000	85.1814	0.0000000E+000	0.0000000E+000	0.0000000E+000	-85.1814	0.0000000E+000	0.0000000E+000	0.0000000E+000	-4.81862	0.0000000E+000	0.0000000E+000	0.0000000E+000	4.81862	11.8624	4.81862	-0.236085
0.00800561	0.386542	0.0201506	0.387067	-2.98415	2711.33	-0.000972322	-2.45532	9.86594e+08	2.67388e+06	1	10	0.0106378	0.0274832	0	-1.87465	2.58003	0.134498	2.58353	2.98415	2.67387e+09	5.12921e+10	5.13618e+10	-87.0159	0.0000000E+000	0.0000000E+000	0.0000000E+000	87.0159	0.0000000E+000	0.0000000E+000	0.0000000E+000	-87.0159	0.0000000E+000	0.0000000E+000	0.0000000E+000	-2.98415	0.0000000E+000	0.0000000E+000	0.0000000E+000	2.98415	19.1827	2.98415	-0.520617