Folder: Thesis/Python/ImpedanceDataOld/different flow rate_NIPS electrode_iron symmetric single-tank tests_0.5 M total iron_choose the cycle number=1/IDFF flow field

File: NoPattern_IDFF_ve=2 cms_EIS.mpt
EC-Lab ASCII FILE
Nb header lines : 63

Potentio Electrochemical Impedance Spectroscopy

Run on channel : 3 (SN 50730)
User :
CE vs. WE compliance from -10 V to 10 V
Electrode connection : standard
Potential control : Ewe
Ewe ctrl range : min = -10.00 V, max = 10.00 V
Safety Limits :
	Do not start on E overload
Acquisition started on : 02/14/2023 14:26:00.376
Loaded Setting File :  C:\Users\sto063\Documents\EC-Lab\Data\Baichen\Micormolding\20230214_denseNoPatternS4_IDFF\NoPattern_IDFF_05Fe_2MHCL_ve10cms_EIS_PCGA.mps
Saved on :
	File : NoPattern_IDFF_05Fe_2MHCL_ve2cms_EIS_PCGA_01_PEIS_C03.mpr
	Directory : C:\Users\sto063\Documents\EC-Lab\Data\Baichen\Micormolding\20230214_denseNoPatternS4_IDFF\
	Host : 131.155.90.158
Device : VSP-3e (SN .003050)
Address : USB
EC-Lab for windows v11.43 (software)
Internet server v11.40 (firmware)
Command interpretor v11.40 (firmware)
Electrode material :
Initial state :
Electrolyte :
Comments :
Electrode surface area : 0.001 cm2
Characteristic mass : 0.001 g
Equivalent Weight : 0.000 g/eq.
Density : 0.000 g/cm3
Volume (V) : 0.001 cm3
Cycle Definition : Charge/Discharge alternance
Mode                Single sine
E (V)               0.0000
vs.                 Eoc
tE (h:m:s)          0:00:0.0000
record              0
dI                  0.000
unit dI             mA
dt (s)              0.000
fi                  200.000
unit fi             kHz
ff                  20.000
unit ff             mHz
Nd                  8
Points              per decade
spacing             Logarithmic
Va (mV)             10.0
pw                  0.10
Na                  5
corr                0
E range min (V)     -10.000
E range max (V)     10.000
I Range             Auto
Bandwidth           5
nc cycles           0
goto Ns'            0
nr cycles           0
inc. cycle          0

freq/Hz	Re(Z)/Ohm	-Im(Z)/Ohm	|Z|/Ohm	Phase(Z)/deg	time/s	<Ewe>/V	<I>/mA	Cs/uF	Cp/uF	cycle number	I Range	|Ewe|/V	|I|/A	Ns	(Q-Qo)/mA.h	Re(Y)/Ohm-1	Im(Y)/Ohm-1	|Y|/Ohm-1	Phase(Y)/deg	Re(C)/nF	Im(C)/nF	|C|/nF	Phase(C)/deg	Re(M)	Im(M)	|M|	Phase(M)/deg	Re(Permittivity)	Im(Permittivity)	|Permittivity|	Phase(Permittivity)/deg	Re(Resistivity)/Ohm.cm	Im(Resistivity)/Ohm.cm	|Resistivity|/Ohm.cm	Phase(Resistivity)/deg	Re(Conductivity)/mS/cm	Im(Conductivity)/mS/cm	|Conductivity|/mS/cm	Phase(Conductivity)/deg	Tan(Delta)	Loss Angle(Delta)/deg	dq/mA.h
199998	0.188113	-0.0751814	0.20258	21.7846	1.73848	-0.00037791	-1.35347	-10.5848	-1.45784	1	9	0.000827502	0.00408481	0	-0.000513952	4.58379	-1.83196	4.93631	-21.7846	-1457.84	3647.7	3928.23	-111.785	0.0000000E+000	0.0000000E+000	0.0000000E+000	111.785	0.0000000E+000	0.0000000E+000	0.0000000E+000	-111.785	0.0000000E+000	0.0000000E+000	0.0000000E+000	21.7846	0.0000000E+000	0.0000000E+000	0.0000000E+000	-21.7846	-2.50213	-21.7846	-0.000513952
83024	0.201189	-0.0267259	0.202956	7.56686	4.3475	-0.000444973	-1.48989	-71.7272	-1.24378	1	9	0.0225312	0.111015	0	-0.00158738	4.88426	-0.648824	4.92717	-7.56686	-1243.78	9363	9445.25	-97.5669	0.0000000E+000	0.0000000E+000	0.0000000E+000	97.5669	0.0000000E+000	0.0000000E+000	0.0000000E+000	-97.5669	0.0000000E+000	0.0000000E+000	0.0000000E+000	7.56686	0.0000000E+000	0.0000000E+000	0.0000000E+000	-7.56686	-7.52787	-7.56686	-0.000465564
34469.6	0.204326	-0.00752137	0.204464	2.10814	8.32648	-0.000314649	-0.991942	-613.884	-0.830701	1	9	0.00934914	0.045725	0	-0.00300845	4.88752	-0.179913	4.89083	-2.10814	-830.7	22566.9	22582.2	-92.1081	0.0000000E+000	0.0000000E+000	0.0000000E+000	92.1081	0.0000000E+000	0.0000000E+000	0.0000000E+000	-92.1081	0.0000000E+000	0.0000000E+000	0.0000000E+000	2.10814	0.0000000E+000	0.0000000E+000	0.0000000E+000	-2.10814	-27.1661	-2.10814	-0.000158894
14307.5	0.208115	0.000392934	0.208115	-0.108178	10.7985	-0.000307174	-0.97399	28309.9	0.100918	1	9	0.0104679	0.0502984	0	-0.00373966	4.80503	0.00907219	4.80503	0.108178	100.918	53450.7	53450.8	-89.8918	0.0000000E+000	0.0000000E+000	0.0000000E+000	89.8918	0.0000000E+000	0.0000000E+000	0.0000000E+000	-89.8918	0.0000000E+000	0.0000000E+000	0.0000000E+000	-0.108178	0.0000000E+000	0.0000000E+000	0.0000000E+000	0.108178	529.643	0.108178	-0.000240872
5937.5	0.211499	0.00298469	0.21152	-0.808509	13.7395	-0.00029929	-0.884811	8980.86	1.78819	1	9	0.0103093	0.0487394	0	-0.004324	4.72722	0.0667109	4.72769	0.808509	1788.19	126713	126726	-89.1915	0.0000000E+000	0.0000000E+000	0.0000000E+000	89.1915	0.0000000E+000	0.0000000E+000	0.0000000E+000	-89.1915	0.0000000E+000	0.0000000E+000	0.0000000E+000	-0.808509	0.0000000E+000	0.0000000E+000	0.0000000E+000	0.808509	70.8613	0.808509	-0.000218003
2465.79	0.21423	0.00339675	0.214257	-0.908384	17.5307	-0.000294444	-0.872893	19002	4.77592	1	9	0.0100693	0.0469962	0	-0.00507972	4.6667	0.0739934	4.66729	0.908384	4775.94	301213	301251	-89.0916	0.0000000E+000	0.0000000E+000	0.0000000E+000	89.0916	0.0000000E+000	0.0000000E+000	0.0000000E+000	-89.0916	0.0000000E+000	0.0000000E+000	0.0000000E+000	-0.908384	0.0000000E+000	0.0000000E+000	0.0000000E+000	0.908384	63.0691	0.908384	-0.000290525
1024.02	0.216272	0.00290995	0.216292	-0.770871	20.8779	-0.000303484	-0.873023	53410.5	9.6676	1	9	0.0104073	0.0481169	0	-0.0059618	4.62296	0.0622022	4.62338	0.770871	9667.64	718511	718576	-89.2291	0.0000000E+000	0.0000000E+000	0.0000000E+000	89.2291	0.0000000E+000	0.0000000E+000	0.0000000E+000	-89.2291	0.0000000E+000	0.0000000E+000	0.0000000E+000	-0.770871	0.0000000E+000	0.0000000E+000	0.0000000E+000	0.770871	74.3215	0.770871	-0.000259788
425.136	0.21777	0.00254455	0.217785	-0.669446	24.2287	-0.00029463	-0.858051	147123	20.0839	1	9	0.0104658	0.0480557	0	-0.00680898	4.59137	0.0536482	4.59168	0.669446	20083.9	1.71884e+06	1.71895e+06	-89.3306	0.0000000E+000	0.0000000E+000	0.0000000E+000	89.3306	0.0000000E+000	0.0000000E+000	0.0000000E+000	-89.3306	0.0000000E+000	0.0000000E+000	0.0000000E+000	-0.669446	0.0000000E+000	0.0000000E+000	0.0000000E+000	0.669446	85.5829	0.669446	-0.000248276
176.411	0.218845	0.00261212	0.21886	-0.683846	27.5572	-0.000300166	-0.861981	345383	49.1985	1	9	0.0104728	0.0478513	0	-0.00756143	4.5688	0.0545328	4.56912	0.683846	49198.5	4.12188e+06	4.12218e+06	-89.3162	0.0000000E+000	0.0000000E+000	0.0000000E+000	89.3162	0.0000000E+000	0.0000000E+000	0.0000000E+000	-89.3162	0.0000000E+000	0.0000000E+000	0.0000000E+000	-0.683846	0.0000000E+000	0.0000000E+000	0.0000000E+000	0.683846	83.7807	0.683846	-0.000305279
73.2422	0.220146	0.00347655	0.220174	-0.904741	30.9365	-0.000296531	-0.872967	625043	155.839	1	9	0.0104751	0.0475767	0	-0.00835571	4.5413	0.0717163	4.54187	0.904741	155839	9.86823e+06	9.86946e+06	-89.0953	0.0000000E+000	0.0000000E+000	0.0000000E+000	89.0953	0.0000000E+000	0.0000000E+000	0.0000000E+000	-89.0953	0.0000000E+000	0.0000000E+000	0.0000000E+000	-0.904741	0.0000000E+000	0.0000000E+000	0.0000000E+000	0.904741	63.3231	0.904741	-0.000316683
30.3988	0.222024	0.0050707	0.222081	-1.30833	34.2641	-0.000299551	-0.866692	1.03251e+06	538.277	1	9	0.0104743	0.0471641	0	-0.00919325	4.50168	0.102812	4.50285	1.30833	538278	2.35688e+07	2.3575e+07	-88.6917	0.0000000E+000	0.0000000E+000	0.0000000E+000	88.6917	0.0000000E+000	0.0000000E+000	0.0000000E+000	-88.6917	0.0000000E+000	0.0000000E+000	0.0000000E+000	-1.30833	0.0000000E+000	0.0000000E+000	0.0000000E+000	1.30833	43.7856	1.30833	-0.00037398
[...]
5.23626	0.229343	0.0116414	0.229638	-2.90582	40.8747	-0.000298787	-0.963004	2.61093e+06	6709.89	1	9	0.0104737	0.0456097	0	-0.0103632	4.34908	0.220758	4.35468	2.90582	6.70989e+06	1.32189e+08	1.3236e+08	-87.0942	0.0000000E+000	0.0000000E+000	0.0000000E+000	87.0942	0.0000000E+000	0.0000000E+000	0.0000000E+000	-87.0942	0.0000000E+000	0.0000000E+000	0.0000000E+000	-2.90582	0.0000000E+000	0.0000000E+000	0.0000000E+000	2.90582	19.7007	2.90582	0.000322975
2.17497	0.236518	0.0172353	0.237146	-4.16783	46.5357	-0.000283992	-0.81544	4.24568e+06	22426.2	1	9	0.0104761	0.0441757	0	-0.0120108	4.20567	0.306471	4.21682	4.16783	2.24262e+07	3.07752e+08	3.08568e+08	-85.8322	0.0000000E+000	0.0000000E+000	0.0000000E+000	85.8322	0.0000000E+000	0.0000000E+000	0.0000000E+000	-85.8322	0.0000000E+000	0.0000000E+000	0.0000000E+000	-4.16783	0.0000000E+000	0.0000000E+000	0.0000000E+000	4.16783	13.7229	4.16783	-0.00134783
0.902137	0.247318	0.0245023	0.248529	-5.65795	60.9448	-0.000274138	-0.74761	7.20013e+06	69984.4	1	10	0.0104752	0.0421488	0	-0.0133044	4.00407	0.396692	4.02367	5.65795	6.99844e+07	7.06398e+08	7.09857e+08	-84.342	0.0000000E+000	0.0000000E+000	0.0000000E+000	84.342	0.0000000E+000	0.0000000E+000	0.0000000E+000	-84.342	0.0000000E+000	0.0000000E+000	0.0000000E+000	-5.65795	0.0000000E+000	0.0000000E+000	0.0000000E+000	5.65795	10.0937	5.65795	0.000631256
0.375024	0.263682	0.0328316	0.265718	-7.09749	92.5052	-0.000271608	-0.744297	1.29261e+07	197338	1	10	0.0104734	0.0394154	0	-0.0250182	3.73455	0.464996	3.76338	7.09749	1.97338e+08	1.58489e+09	1.59713e+09	-82.9025	0.0000000E+000	0.0000000E+000	0.0000000E+000	82.9025	0.0000000E+000	0.0000000E+000	0.0000000E+000	-82.9025	0.0000000E+000	0.0000000E+000	0.0000000E+000	-7.09749	0.0000000E+000	0.0000000E+000	0.0000000E+000	7.09749	8.03135	7.09749	-0.00642003
0.155417	0.286239	0.0418367	0.28928	-8.31548	168.292	-0.000273	-0.724105	2.44773e+07	511967	1	10	0.0104752	0.0362113	0	-0.0358533	3.42051	0.499942	3.45685	8.31548	5.11967e+08	3.50278e+09	3.54e+09	-81.6845	0.0000000E+000	0.0000000E+000	0.0000000E+000	81.6845	0.0000000E+000	0.0000000E+000	0.0000000E+000	-81.6845	0.0000000E+000	0.0000000E+000	0.0000000E+000	-8.31548	0.0000000E+000	0.0000000E+000	0.0000000E+000	8.31548	6.84181	8.31548	-0.000654693
0.0645779	0.318658	0.0433757	0.321596	-7.75146	350.541	-0.000280446	-0.75574	5.68185e+07	1.03362e+06	1	10	0.0104778	0.0325805	0	-0.0553152	3.08107	0.419396	3.10949	7.75146	1.03362e+09	7.59344e+09	7.66347e+09	-82.2485	0.0000000E+000	0.0000000E+000	0.0000000E+000	82.2485	0.0000000E+000	0.0000000E+000	0.0000000E+000	-82.2485	0.0000000E+000	0.0000000E+000	0.0000000E+000	-7.75146	0.0000000E+000	0.0000000E+000	0.0000000E+000	7.75146	7.34646	7.75146	-0.0155272
0.0268165	0.345733	0.029692	0.347006	-4.9086	788.979	-0.000270549	-0.720592	1.99884e+08	1.46348e+06	1	10	0.0104754	0.030188	0	-0.208248	2.87123	0.246585	2.8818	4.9086	1.46348e+09	1.70407e+10	1.71034e+10	-85.0914	0.0000000E+000	0.0000000E+000	0.0000000E+000	85.0914	0.0000000E+000	0.0000000E+000	0.0000000E+000	-85.0914	0.0000000E+000	0.0000000E+000	0.0000000E+000	-4.9086	0.0000000E+000	0.0000000E+000	0.0000000E+000	4.9086	11.644	4.9086	-0.0651354
0.0199925	0.351158	0.024284	0.351997	-3.95593	1044.41	-0.000277854	-0.734901	3.27819e+08	1.56026e+06	1	10	0.0104756	0.0297606	0	-0.27182	2.83417	0.195994	2.84094	3.95593	1.56026e+09	2.25621e+10	2.2616e+10	-86.0441	0.0000000E+000	0.0000000E+000	0.0000000E+000	86.0441	0.0000000E+000	0.0000000E+000	0.0000000E+000	-86.0441	0.0000000E+000	0.0000000E+000	0.0000000E+000	-3.95593	0.0000000E+000	0.0000000E+000	0.0000000E+000	3.95593	14.4605	3.95593	-0.0635719

File: NoPattern_IDFF_ve=10 cms_EIS.mpt
EC-Lab ASCII FILE
Nb header lines : 66

Potentio Electrochemical Impedance Spectroscopy

Run on channel : 3 (SN 50730)
User :
CE vs. WE compliance from -10 V to 10 V
Electrode connection : standard
Potential control : Ewe
Ewe ctrl range : min = -10.00 V, max = 10.00 V
Safety Limits :
	Do not start on E overload
Acquisition started on : 02/14/2023 16:56:05.168
Loaded Setting File :  NONE
Saved on :
	File : NoPattern_IDFF_05Fe_2MHCL_ve10cms_EIS_PCGA_01_PEIS_C01_01_PEIS_C03.mpr
	Directory : C:\Users\sto063\Documents\EC-Lab\Data\Baichen\Micormolding\20230214_denseNoPatternS4_IDFF\
	Host : 131.155.90.158
Device : VSP-3e (SN .003050)
Address : USB
EC-Lab for windows v11.43 (software)
Internet server v11.40 (firmware)
Command interpretor v11.40 (firmware)
Electrode material :
Initial state :
Electrolyte :
Comments :
Electrode surface area : 0.001 cm2
Characteristic mass : 0.001 g
Equivalent Weight : 0.000 g/eq.
Density : 0.000 g/cm3
Volume (V) : 0.001 cm3
Cycle Definition : Charge/Discharge alternance
Mode                Single sine
E (V)               0.0000
vs.                 Eoc
tE (h:m:s)          0:00:0.0000
record              0
dI                  0.000
unit dI             mA
dt (s)              0.000
fi                  200.000
unit fi             kHz
ff                  4.000
unit ff             mHz
Nd                  8
Points              per decade
spacing             Logarithmic
Va (mV)             10.0
pw                  0.10
Na                  5
corr                0
E range min (V)     -10.000
E range max (V)     10.000
I Range             Auto
Bandwidth           5
nc cycles           0
goto Ns'            0
nr cycles           0
inc. cycle          0

Modify on : 02/14/2023 16:56
ff                  20.000

freq/Hz	Re(Z)/Ohm	-Im(Z)/Ohm	|Z|/Ohm	Phase(Z)/deg	time/s	<Ewe>/V	<I>/mA	Cs/uF	Cp/uF	cycle number	I Range	|Ewe|/V	|I|/A	Ns	(Q-Qo)/mA.h	Re(Y)/Ohm-1	Im(Y)/Ohm-1	|Y|/Ohm-1	Phase(Y)/deg	Re(C)/nF	Im(C)/nF	|C|/nF	Phase(C)/deg	Re(M)	Im(M)	|M|	Phase(M)/deg	Re(Permittivity)	Im(Permittivity)	|Permittivity|	Phase(Permittivity)/deg	Re(Resistivity)/Ohm.cm	Im(Resistivity)/Ohm.cm	|Resistivity|/Ohm.cm	Phase(Resistivity)/deg	Re(Conductivity)/mS/cm	Im(Conductivity)/mS/cm	|Conductivity|/mS/cm	Phase(Conductivity)/deg	Tan(Delta)	Loss Angle(Delta)/deg	dq/mA.h
199998	0.197216	-0.0740383	0.210655	20.577	1.73848	-0.000386223	-1.3038	-10.7483	-1.32772	1	9	0.000858422	0.004075	0	-0.000477082	4.44423	-1.66844	4.74709	-20.577	-1327.72	3536.64	3777.65	-110.577	0.0000000E+000	0.0000000E+000	0.0000000E+000	110.577	0.0000000E+000	0.0000000E+000	0.0000000E+000	-110.577	0.0000000E+000	0.0000000E+000	0.0000000E+000	20.577	0.0000000E+000	0.0000000E+000	0.0000000E+000	-20.577	-2.6637	-20.577	-0.000477082
83636.4	0.210878	-0.0270535	0.212607	7.31053	4.34748	-0.000464097	-1.79232	-70.3397	-1.13893	1	9	0.02306	0.108463	0	-0.00169595	4.66529	-0.598509	4.70352	-7.31053	-1138.93	8877.76	8950.51	-97.3105	0.0000000E+000	0.0000000E+000	0.0000000E+000	97.3105	0.0000000E+000	0.0000000E+000	0.0000000E+000	-97.3105	0.0000000E+000	0.0000000E+000	0.0000000E+000	7.31053	0.0000000E+000	0.0000000E+000	0.0000000E+000	-7.31053	-7.79485	-7.31053	-0.000543613
34970.7	0.213386	-0.00786541	0.213531	2.11097	8.32647	-0.000310995	-1.23628	-578.622	-0.785085	1	9	0.0092858	0.043487	0	-0.00299328	4.67999	-0.172505	4.68317	-2.11097	-785.085	21299.1	21313.5	-92.111	0.0000000E+000	0.0000000E+000	0.0000000E+000	92.111	0.0000000E+000	0.0000000E+000	0.0000000E+000	-92.111	0.0000000E+000	0.0000000E+000	0.0000000E+000	2.11097	0.0000000E+000	0.0000000E+000	0.0000000E+000	-2.11097	-27.1296	-2.11097	-0.000216385
14622.9	0.216882	7.45631e-05	0.216882	-0.0196981	10.7985	-0.000303204	-1.17365	145969	0.017253	1	9	0.0104619	0.0482381	0	-0.00379681	4.61081	0.00158518	4.61081	0.0196981	17.2539	50183.8	50183.8	-89.9803	0.0000000E+000	0.0000000E+000	0.0000000E+000	89.9803	0.0000000E+000	0.0000000E+000	0.0000000E+000	-89.9803	0.0000000E+000	0.0000000E+000	0.0000000E+000	-0.0196981	0.0000000E+000	0.0000000E+000	0.0000000E+000	0.0196981	2908.7	0.0196981	-0.000187883
6115.42	0.219681	0.00262882	0.219697	-0.6856	13.6917	-0.000305646	-1.08512	9899.92	1.41745	1	9	0.0102679	0.0467366	0	-0.00461594	4.5514	0.0544645	4.55172	0.6856	1417.45	118451	118459	-89.3144	0.0000000E+000	0.0000000E+000	0.0000000E+000	89.3144	0.0000000E+000	0.0000000E+000	0.0000000E+000	-89.3144	0.0000000E+000	0.0000000E+000	0.0000000E+000	-0.6856	0.0000000E+000	0.0000000E+000	0.0000000E+000	0.6856	83.5663	0.6856	-0.000291077
2567.54	0.220455	0.00285695	0.220473	-0.742474	17.4829	-0.000293698	-1.04337	21697.1	3.6433	1	9	0.0100048	0.0453786	0	-0.00572201	4.53532	0.0587748	4.5357	0.742474	3643.31	281133	281157	-89.2575	0.0000000E+000	0.0000000E+000	0.0000000E+000	89.2575	0.0000000E+000	0.0000000E+000	0.0000000E+000	-89.2575	0.0000000E+000	0.0000000E+000	0.0000000E+000	-0.742474	0.0000000E+000	0.0000000E+000	0.0000000E+000	0.742474	77.1644	0.742474	-0.000367447
1024.02	0.223781	0.00280936	0.223798	-0.719258	20.8299	-0.000294481	-1.07457	55323	8.7178	1	9	0.0104164	0.0465439	0	-0.00676327	4.46796	0.0560911	4.46831	0.719258	8717.84	694420	694475	-89.2807	0.0000000E+000	0.0000000E+000	0.0000000E+000	89.2807	0.0000000E+000	0.0000000E+000	0.0000000E+000	-89.2807	0.0000000E+000	0.0000000E+000	0.0000000E+000	-0.719258	0.0000000E+000	0.0000000E+000	0.0000000E+000	0.719258	79.6554	0.719258	-0.000328734
425.136	0.224892	0.00228864	0.224904	-0.583057	24.1807	-0.000296531	-1.05634	163574	16.9386	1	9	0.0104681	0.046545	0	-0.00778171	4.44612	0.0452464	4.44635	0.583057	16938.5	1.66446e+06	1.66455e+06	-89.4169	0.0000000E+000	0.0000000E+000	0.0000000E+000	89.4169	0.0000000E+000	0.0000000E+000	0.0000000E+000	-89.4169	0.0000000E+000	0.0000000E+000	0.0000000E+000	-0.583057	0.0000000E+000	0.0000000E+000	0.0000000E+000	0.583057	98.2645	0.583057	-0.000307345
176.411	0.225549	0.0023981	0.225562	-0.609163	27.5102	-0.000293735	-1.04812	376206	42.5238	1	9	0.0104728	0.0464299	0	-0.00872933	4.43313	0.0471344	4.43338	0.609163	42523.6	3.99949e+06	3.99971e+06	-89.3908	0.0000000E+000	0.0000000E+000	0.0000000E+000	89.3908	0.0000000E+000	0.0000000E+000	0.0000000E+000	-89.3908	0.0000000E+000	0.0000000E+000	0.0000000E+000	-0.609163	0.0000000E+000	0.0000000E+000	0.0000000E+000	0.609163	94.0529	0.609163	-0.000368485
73.2422	0.226472	0.00310305	0.226494	-0.784998	30.8896	-0.000310455	-1.11311	700278	131.442	1	9	0.0104734	0.0462414	0	-0.00969396	4.41472	0.060489	4.41513	0.784998	131442	9.59317e+06	9.59407e+06	-89.215	0.0000000E+000	0.0000000E+000	0.0000000E+000	89.215	0.0000000E+000	0.0000000E+000	0.0000000E+000	-89.215	0.0000000E+000	0.0000000E+000	0.0000000E+000	-0.784998	0.0000000E+000	0.0000000E+000	0.0000000E+000	0.784998	72.9839	0.784998	-0.000315168
30.3988	0.227835	0.00420726	0.227874	-1.05792	34.2181	-0.000296457	-1.03375	1.24441e+06	424.203	1	9	0.0104733	0.0459611	0	-0.0106399	4.38765	0.0810235	4.38839	1.05792	424205	2.29718e+07	2.29757e+07	-88.9421	0.0000000E+000	0.0000000E+000	0.0000000E+000	88.9421	0.0000000E+000	0.0000000E+000	0.0000000E+000	-88.9421	0.0000000E+000	0.0000000E+000	0.0000000E+000	-1.05792	0.0000000E+000	0.0000000E+000	0.0000000E+000	1.05792	54.1528	1.05792	-0.000339626
12.628	0.230064	0.00576924	0.230137	-1.43649	37.7443	-0.000291899	-1.05684	2.18458e+06	1372.89	1	9	0.0104746	0.0455146	0	-0.0115435	4.34388	0.10893	4.34525	1.43649	1.37289e+06	5.47476e+07	5.47648e+07	-88.5635	0.0000000E+000	0.0000000E+000	0.0000000E+000	88.5635	0.0000000E+000	0.0000000E+000	0.0000000E+000	-88.5635	0.0000000E+000	0.0000000E+000	0.0000000E+000	-1.43649	0.0000000E+000	0.0000000E+000	0.0000000E+000	1.43649	39.8777	1.43649	-0.000196221
5.23626	0.233576	0.00752091	0.233697	-1.84423	40.8287	-0.000293679	-1.06891	4.04137e+06	4185.65	1	9	0.0104748	0.044822	0	-0.013008	4.27683	0.13771	4.27905	1.84423	4.18566e+06	1.29993e+08	1.30061e+08	-88.1558	0.0000000E+000	0.0000000E+000	0.0000000E+000	88.1558	0.0000000E+000	0.0000000E+000	0.0000000E+000	-88.1558	0.0000000E+000	0.0000000E+000	0.0000000E+000	-1.84423	0.0000000E+000	0.0000000E+000	0.0000000E+000	1.84423	31.0569	1.84423	-0.00077243
2.17497	0.238718	0.00950789	0.238907	-2.28083	46.4897	-0.000285972	-1.04109	7.6963e+06	12189.7	1	9	0.0104773	0.0438552	0	-0.0151598	4.18241	0.166581	4.18573	2.28083	1.21897e+07	3.06051e+08	3.06293e+08	-87.7192	0.0000000E+000	0.0000000E+000	0.0000000E+000	87.7192	0.0000000E+000	0.0000000E+000	0.0000000E+000	-87.7192	0.0000000E+000	0.0000000E+000	0.0000000E+000	-2.28083	0.0000000E+000	0.0000000E+000	0.0000000E+000	2.28083	25.1073	2.28083	-0.00162736
0.902137	0.244534	0.00925293	0.244709	-2.16698	60.8989	-0.000278209	-0.994485	1.90664e+07	27260	1	10	0.0104758	0.0428089	0	-0.0173902	4.08356	0.154518	4.08648	2.16698	2.726e+07	7.20421e+08	7.20937e+08	-87.833	0.0000000E+000	0.0000000E+000	0.0000000E+000	87.833	0.0000000E+000	0.0000000E+000	0.0000000E+000	-87.833	0.0000000E+000	0.0000000E+000	0.0000000E+000	-2.16698	0.0000000E+000	0.0000000E+000	0.0000000E+000	2.16698	26.4278	2.16698	-0.0026765
0.375024	0.248482	0.0064162	0.248565	-1.47914	92.4589	-0.000280094	-1.0085	6.61429e+07	44071.7	1	10	0.0104778	0.0421531	0	-0.0293007	4.02176	0.103848	4.0231	1.47914	4.40717e+07	1.70678e+09	1.70735e+09	-88.5209	0.0000000E+000	0.0000000E+000	0.0000000E+000	88.5209	0.0000000E+000	0.0000000E+000	0.0000000E+000	-88.5209	0.0000000E+000	0.0000000E+000	0.0000000E+000	-1.47914	0.0000000E+000	0.0000000E+000	0.0000000E+000	1.47914	38.7273	1.47914	-0.0027046
0.155417	0.2499	0.00378826	0.249929	-0.868485	168.245	-0.000275896	-0.990453	2.70322e+08	62105.2	1	10	0.0104757	0.0419145	0	-0.0360224	4.00067	0.0606465	4.00113	0.868485	6.21051e+07	4.0969e+09	4.09737e+09	-89.1315	0.0000000E+000	0.0000000E+000	0.0000000E+000	89.1315	0.0000000E+000	0.0000000E+000	0.0000000E+000	-89.1315	0.0000000E+000	0.0000000E+000	0.0000000E+000	-0.868485	0.0000000E+000	0.0000000E+000	0.0000000E+000	0.868485	65.9671	0.868485	-0.00510711
0.0865095	0.246229	0.00209683	0.246238	-0.487906	271.373	-0.000274301	-1.01098	8.7739e+08	63622.4	1	10	0.0104746	0.0425387	0	-0.0791706	4.06096	0.0345823	4.06111	0.487906	6.36225e+07	7.47112e+09	7.47139e+09	-89.5121	0.0000000E+000	0.0000000E+000	0.0000000E+000	89.5121	0.0000000E+000	0.0000000E+000	0.0000000E+000	-89.5121	0.0000000E+000	0.0000000E+000	0.0000000E+000	-0.487906	0.0000000E+000	0.0000000E+000	0.0000000E+000	0.487906	117.429	0.487906	-0.0283388