Folder: Thesis/Python/Experiments/RDE/Dicarboxylferrocene/Data

File: 240327-CVEIS-5mM_DiCaFerrocene-1M_NaCl-0000RPM-Ag_AgCl_BLF8-Au_RDE_01_CV_C15.mpt
EC-Lab ASCII FILE
Nb header lines : 59

Cyclic Voltammetry

Run on channel : 15 (SN 19485)
User :
Electrode connection : standard
Potential control : Ewe
Ewe ctrl range : min = -1.00 V, max = 1.00 V
Ewe,I filtering : <None>
Safety Limits :
	Do not start on E overload
Channel : Floating
Acquisition started on : 03/27/2024 12:38:41.023
Loaded Setting File :  C:\Data\mathias\GoldElectrode\240322-CVEIS-5mM_Fe2Fe3-1M_H2SO4-0000RPM-Ag_AgCl_BLF8-GC_RDE.mps
Saved on :
	File : 240327-CVEIS-5mM_DiCaFerrocene-1M_NaCl-0000RPM-Ag_AgCl_BLF8-Au_RDE_01_CV_C15.mpr
	Directory : C:\Data\mathias\GoldElectrode\
	Host : 192.168.0.1
Device : VMP-300 (SN 0826)
Address : USB
EC-Lab for windows v11.52 (software)
Internet server v11.52 (firmware)
Command interpretor v11.52 (firmware)
Electrode material :
Initial state :
Electrolyte :
Comments :
Cable : special
Electrode surface area : 0.001 cm²
Characteristic mass : 0.001 g
Equivalent Weight : 0.000 g/eq.
Density : 0.000 g/cm3
Volume (V) : 0.001 cm³
Cycle Definition : Charge/Discharge alternance
Ei (V)              0.000
vs.                 Eoc
dE/dt               20.000
dE/dt unit          mV/s
E1 (V)              0.700
vs.                 Ref
Step percent        50
N                   10
E range min (V)     -1.000
E range max (V)     1.000
I Range             Auto
I Range min         Unset
I Range max         Unset
I Range init        Unset
Bandwidth           8
E2 (V)              0.000
vs.                 Ref
nc cycles           1
Reverse Scan        1
Ef (V)              0.000
vs.                 Eoc

mode	ox/red	error	control changes	counter inc.	time/s	control/V	Ewe/V	<I>/mA	cycle number	(Q-Qo)/C	I Range	step time/s	P/W
2	1	1	0	0	0.000000000000000E+000	0.0244572	0.023419	1.83462e-05	1	0.0000000E+000	44	0.000000000000000E+000	4.2965e-10
2	1	0	1	0	1.1933	0.0483208	0.0477021	0.000272563	1	2.77252e-07	43	1.1645	1.30018e-08
2	1	0	1	0	2.3677	0.0718095	0.0712374	0.000339596	1	6.36266e-07	43	2.3389	2.4192e-08
2	1	0	1	0	3.5421	0.0952983	0.0949259	0.000418612	1	1.07899e-06	43	3.5133	3.97371e-08
2	1	0	1	0	4.7166	0.118787	0.118205	0.000530848	1	1.63302e-06	43	4.6878	6.27487e-08
2	1	0	1	0	5.891	0.142276	0.141602	0.000673359	1	2.33501e-06	43	5.8622	9.5349e-08
2	1	0	1	0	7.0654	0.165764	0.165156	0.00084765	1	3.22464e-06	43	7.0366	1.39994e-07
2	1	0	1	0	8.2399	0.189253	0.188566	0.00105767	1	4.34025e-06	43	8.2111	1.9944e-07
2	1	0	1	0	9.4443	0.213342	0.213007	0.00132018	1	5.766e-06	42	9.4155	2.81207e-07
2	1	0	1	0	10.6188	0.236832	0.236703	0.00166199	1	7.50801e-06	42	10.59	3.93398e-07
2	1	0	1	0	11.7932	0.260319	0.260267	0.0021502	1	9.72754e-06	42	11.7644	5.59627e-07
2	1	0	1	0	12.9676	0.283808	0.283535	0.00293554	1	1.26821e-05	42	12.9388	8.32328e-07
2	1	0	1	0	14.1421	0.307297	0.30722	0.00408936	1	1.67813e-05	42	14.1133	1.25633e-06
2	1	0	1	0	15.3165	0.330785	0.330682	0.00539128	1	2.23442e-05	42	15.2877	1.7828e-06
2	1	0	1	0	16.4909	0.354274	0.353908	0.00702839	1	2.95664e-05	42	16.4621	2.4874e-06
2	1	0	1	0	17.6654	0.377763	0.377432	0.0102975	1	3.94806e-05	42	17.6366	3.88661e-06
2	1	0	1	0	18.8698	0.401851	0.40146	0.0176285	1	5.57606e-05	41	18.841	7.07711e-06
2	1	0	1	0	20.0442	0.42534	0.42511	0.0305617	1	8.35648e-05	41	20.0154	1.29921e-05
2	1	0	1	0	21.2187	0.448829	0.448647	0.0464905	1	0.000128958	41	21.1899	2.08578e-05
2	1	0	1	0	22.3931	0.472318	0.472128	0.0565161	1	0.000190464	41	22.3643	2.66828e-05
2	1	0	1	0	23.5676	0.495808	0.495656	0.0566975	1	0.00025785	41	23.5388	2.81025e-05
2	1	0	1	0	24.742	0.519295	0.519121	0.0514644	1	0.000321633	41	24.7132	2.67163e-05
2	1	0	1	0	25.9164	0.542784	0.542609	0.0456063	1	0.000378582	41	25.8876	2.47464e-05
2	1	0	1	0	27.0909	0.566273	0.566076	0.0408354	1	0.000429248	41	27.0621	2.3116e-05
2	1	0	1	0	28.2653	0.589761	0.589465	0.0373439	1	0.00047509	41	28.2365	2.20129e-05
2	1	0	1	0	29.4397	0.61325	0.61305	0.0347693	1	0.000517398	41	29.4109	2.13153e-05
2	1	0	1	0	30.6142	0.636739	0.636502	0.0329272	1	0.00055714	41	30.5854	2.09582e-05
2	1	0	1	0	31.7886	0.660228	0.660028	0.0316034	1	0.000595038	41	31.7598	2.08591e-05
2	1	0	1	0	32.963	0.683716	0.683448	0.0308674	1	0.000631745	41	32.9342	2.10963e-05
2	1	0	1	0	34.1157	0.693212	0.693032	0.0287423	1	0.000666797	41	34.0869	1.99193e-05
2	1	0	1	0	35.2901	0.669723	0.669293	0.02656	1	0.000699013	41	35.2613	1.77764e-05
2	1	0	1	0	36.4646	0.646234	0.645998	0.0254553	1	0.000729436	41	36.4358	1.64441e-05
2	1	0	1	0	37.639	0.622746	0.622474	0.0246213	1	0.00075877	41	37.6102	1.53261e-05
2	1	0	1	0	38.8134	0.599257	0.59896	0.0237502	1	0.000787116	41	38.7846	1.42254e-05
2	1	0	1	0	39.9879	0.575768	0.575535	0.0225782	1	0.000814306	41	39.9591	1.29945e-05
2	1	0	1	0	41.1623	0.552279	0.552	0.0206092	1	0.000839735	41	41.1335	1.13763e-05
2	1	0	1	0	42.3367	0.528791	0.528778	0.0166754	1	0.000861845	41	42.3079	8.81756e-06
2	1	0	1	0	43.5112	0.505302	0.505126	0.00904453	1	0.000877378	41	43.4824	4.56862e-06
2	0	0	1	0	44.7156	0.481213	0.481049	-0.00423782	1	0.000880813	42	0.2998	-2.0386e-06
2	0	0	1	0	45.92	0.457125	0.456751	-0.0200166	1	0.000866063	41	1.5042	-9.14261e-06
2	0	0	1	0	47.0945	0.433636	0.433264	-0.0296662	1	0.000835873	41	2.6787	-1.28533e-05
2	0	0	1	0	48.2689	0.410147	0.409847	-0.0296957	1	0.000800168	41	3.8531	-1.21707e-05
2	0	0	1	0	49.4433	0.386659	0.386312	-0.0246189	1	0.000768049	41	5.0275	-9.51056e-06
2	0	0	1	0	50.6178	0.36317	0.362931	-0.0193685	1	0.000742289	41	6.202	-7.02941e-06
2	0	0	1	0	51.7922	0.339681	0.339664	-0.015628	1	0.000721855	41	7.3764	-5.30828e-06
2	0	0	1	0	52.9666	0.316193	0.316128	-0.0132034	1	0.000704983	41	8.5508	-4.17397e-06
2	0	0	1	0	54.1411	0.292704	0.292505	-0.0112019	1	0.000690629	41	9.7253	-3.27661e-06
2	0	0	1	0	55.3155	0.269215	0.269169	-0.00928002	1	0.000678572	41	10.8997	-2.49789e-06
2	0	0	1	0	56.49	0.245726	0.245525	-0.00759429	1	0.000668644	41	12.0742	-1.86459e-06
2	0	0	1	0	57.6644	0.222237	0.222111	-0.00625244	1	0.000660503	41	13.2486	-1.38873e-06
2	0	0	1	0	58.8388	0.198749	0.198406	-0.00516762	1	0.000653782	41	14.423	-1.02529e-06
2	0	0	1	0	60.0433	0.17466	0.174528	-0.00432244	1	0.000648067	42	15.6275	-7.54388e-07
2	0	0	1	0	61.2177	0.151172	0.151017	-0.00364506	1	0.0006434	42	16.8019	-5.50466e-07
2	0	0	1	0	62.3921	0.127683	0.127305	-0.00309519	1	0.000639455	42	17.9763	-3.94034e-07
2	0	0	1	0	63.5666	0.104194	0.1039	-0.00264967	1	0.00063609	42	19.1508	-2.75301e-07
2	0	0	1	0	64.741	0.0807053	0.080284	-0.00228664	1	0.000633194	42	20.3252	-1.8358e-07
2	0	0	1	0	65.9154	0.0572174	0.0568905	-0.00200116	1	0.000630676	42	21.4996	-1.13847e-07
2	0	0	1	0	67.0899	0.0337278	0.0335408	-0.00178246	1	0.00062846	42	22.6741	-5.97851e-08
2	0	0	1	0	68.2643	0.010239	0.00998845	-0.00161089	1	0.000626475	42	23.8485	-1.60903e-08
2	0	0	1	1	69.4142	0.0127878	0.0126428	-0.000522424	1	0.000625199	42	24.9984	-6.6049e-09
2	0	0	1	1	70.5862	0.0362275	0.0360546	-0.000153284	2	0.000624831	43	26.1704	-5.5266e-09
2	1	0	1	1	71.7606	0.0597153	0.0596049	7.5134e-05	2	0.000624796	43	0.4248	4.47836e-09
2	1	0	1	1	72.935	0.0832041	0.0829978	0.000243836	2	0.000624987	43	1.5992	2.02379e-08
2	1	0	1	1	74.1095	0.106693	0.106527	0.000376727	2	0.000625359	43	2.7737	4.01316e-08
2	1	0	1	1	75.2839	0.130182	0.130036	0.000523592	2	0.000625895	43	3.9481	6.80861e-08
2	1	0	1	1	76.4583	0.15367	0.153474	0.000659877	2	0.00062659	43	5.1225	1.01274e-07
2	1	0	1	1	77.6328	0.177159	0.176871	0.000816648	2	0.000627455	43	6.297	1.44441e-07
[...]
2	1	0	1	1	90.6116	0.436735	0.436444	0.0376957	2	0.000722779	41	19.2758	1.64521e-05
2	1	0	1	1	91.786	0.460223	0.460072	0.0518381	2	0.000775981	41	20.4502	2.38493e-05
2	1	0	1	1	92.9604	0.483712	0.483565	0.057012	2	0.000840981	41	21.6246	2.7569e-05
2	1	0	1	1	94.1349	0.507201	0.506867	0.0539062	2	0.000906693	41	22.7991	2.73233e-05
2	1	0	1	1	95.3093	0.53069	0.530553	0.0480324	2	0.000966633	41	23.9735	2.54838e-05
2	1	0	1	1	96.4838	0.55418	0.554094	0.0426603	2	0.00101981	41	25.148	2.36378e-05
2	1	0	1	1	97.6582	0.577667	0.577155	0.0385236	2	0.00106741	41	26.3224	2.22341e-05
2	1	0	1	1	98.8326	0.601156	0.600808	0.0354519	2	0.0011108	41	27.4968	2.12998e-05
2	1	0	1	1	100.007	0.624645	0.624474	0.0332738	2	0.00115115	41	28.6713	2.07786e-05
2	1	0	1	1	101.181	0.648133	0.648029	0.0316914	2	0.00118929	41	29.8457	2.0537e-05
2	1	0	1	1	102.356	0.671622	0.671442	0.030626	2	0.00122589	41	31.0201	2.05636e-05
2	1	0	1	1	103.53	0.695111	0.694645	0.0300738	2	0.00126153	41	32.1946	2.08906e-05
2	1	0	1	1	104.663	0.682217	0.681906	0.0270228	2	0.00129369	41	33.3272	1.8427e-05
2	1	0	1	1	105.837	0.65873	0.658194	0.0256705	2	0.00132451	41	34.5016	1.68962e-05
2	1	0	1	1	107.012	0.63524	0.634867	0.0247573	2	0.00135404	41	35.6761	1.57176e-05
2	1	0	1	1	108.186	0.611751	0.611409	0.0238942	2	0.00138256	41	36.8505	1.46091e-05
2	1	0	1	1	109.361	0.588262	0.588135	0.0228938	2	0.00141003	41	38.025	1.34646e-05
2	1	0	1	1	110.535	0.564773	0.564348	0.0214131	2	0.00143606	41	39.1994	1.20844e-05
2	1	0	1	1	111.71	0.541285	0.540906	0.0186487	2	0.00145971	41	40.3738	1.00872e-05
2	1	0	1	1	112.884	0.517796	0.51748	0.0132753	2	0.00147877	41	41.5483	6.86971e-06
2	1	0	1	1	114.088	0.493707	0.493518	0.00292	2	0.00148904	42	42.7527	1.44108e-06
2	0	0	1	1	115.293	0.469619	0.469433	-0.0122076	2	0.00148371	41	0.9295	-5.73063e-06
2	0	0	1	1	116.467	0.44613	0.445855	-0.0259877	2	0.00146065	41	2.104	-1.15867e-05
2	0	0	1	1	117.642	0.422641	0.422535	-0.0309861	2	0.00142615	41	3.2784	-1.30927e-05
2	0	0	1	1	118.816	0.399153	0.398433	-0.0279655	2	0.00139098	41	4.4528	-1.11424e-05
2	0	0	1	1	119.991	0.375664	0.375508	-0.0224723	2	0.00136132	41	5.6273	-8.43852e-06
2	0	0	1	1	121.165	0.352175	0.351948	-0.0178239	2	0.00133777	41	6.8017	-6.27308e-06
2	0	0	1	1	122.34	0.328686	0.328564	-0.0147525	2	0.00131872	41	7.9762	-4.84715e-06
2	0	0	1	1	123.514	0.305198	0.305059	-0.0126123	2	0.00130267	41	9.1506	-3.84748e-06
2	0	0	1	1	124.688	0.281709	0.281446	-0.0106714	2	0.00128896	41	10.325	-3.00343e-06
2	0	0	1	1	125.863	0.25822	0.257995	-0.00886577	2	0.00127746	41	11.4995	-2.28732e-06
2	0	0	1	1	127.037	0.234731	0.234408	-0.00731949	2	0.00126794	41	12.6739	-1.71574e-06
2	0	0	1	1	128.212	0.211243	0.211155	-0.00606037	2	0.00126006	41	13.8483	-1.27968e-06
2	0	0	1	1	129.386	0.187754	0.187451	-0.00508961	2	0.00125348	41	15.0228	-9.54052e-07
2	0	0	1	1	130.591	0.163666	0.163188	-0.00433936	2	0.00124779	42	16.2272	-7.08131e-07
2	0	0	1	1	131.765	0.140177	0.140016	-0.00372464	2	0.00124308	42	17.4016	-5.21509e-07
2	0	0	1	1	132.939	0.116688	0.116592	-0.00318824	2	0.00123903	42	18.5761	-3.71723e-07
2	0	0	1	1	134.114	0.0931993	0.0929192	-0.00275468	2	0.00123554	42	19.7505	-2.55963e-07
2	0	0	1	1	135.288	0.0697092	0.0693531	-0.00240685	2	0.00123251	42	20.925	-1.66922e-07
2	0	0	1	1	136.463	0.0462218	0.0457966	-0.00212339	2	0.00122986	42	22.0994	-9.72439e-08
2	0	0	1	1	137.637	0.022733	0.022254	-0.00190307	2	0.0012275	42	23.2738	-4.23508e-08
2	0	0	1	0	138.787	0.000293803	6.97562e-05	-0.00126653	2	0.00122541	42	24.4237	-8.83487e-11
2	0	0	1	0	139.958	0.0237069	0.0233685	-0.000444253	2	0.00122456	42	25.5944	-1.03815e-08
2	0	0	0	0	139.966	0.0239075	0.0246992	-0.000431829	2	0.00122456	42	25.6026	-1.06658e-08

File: 240327-CVEIS-5mM_DiCaFerrocene-1M_NaCl-0000RPM-Ag_AgCl_BLF8-Au_RDE_02_PEIS_C15.mpt
EC-Lab ASCII FILE
Nb header lines : 65

Potentio Electrochemical Impedance Spectroscopy

Run on channel : 15 (SN 19485)
User :
Electrode connection : standard
Potential control : Ewe
Ewe ctrl range : min = -1.00 V, max = 1.00 V
Ewe,I filtering : <None>
Safety Limits :
	Do not start on E overload
Channel : Floating
Acquisition started on : 03/27/2024 12:38:41.023
Loaded Setting File :  C:\Data\mathias\GoldElectrode\240322-CVEIS-5mM_Fe2Fe3-1M_H2SO4-0000RPM-Ag_AgCl_BLF8-GC_RDE.mps
Saved on :
	File : 240327-CVEIS-5mM_DiCaFerrocene-1M_NaCl-0000RPM-Ag_AgCl_BLF8-Au_RDE_02_PEIS_C15.mpr
	Directory : C:\Data\mathias\GoldElectrode\
	Host : 192.168.0.1
Device : VMP-300 (SN 0826)
Address : USB
EC-Lab for windows v11.52 (software)
Internet server v11.52 (firmware)
Command interpretor v11.52 (firmware)
Electrode material :
Initial state :
Electrolyte :
Comments :
Cable : special
Electrode surface area : 0.001 cm²
Characteristic mass : 0.001 g
Equivalent Weight : 0.000 g/eq.
Density : 0.000 g/cm3
Volume (V) : 0.001 cm³
Cycle Definition : Charge/Discharge alternance
Mode                Single sine
E (V)               0.0000
vs.                 Eoc
tE (h:m:s)          0:00:0.0000
record              0
dI                  0.000
unit dI             mA
dt (s)              0.000
fi                  400.000
unit fi             kHz
ff                  100.000
unit ff             mHz
Nd                  10
Points              per decade
spacing             Logarithmic
Va (mV)             5.0
pw                  0.10
Na                  3
corr                0
E range min (V)     -1.000
E range max (V)     1.000
I Range             Auto
Bandwidth           8
nc cycles           2
goto Ns'            0
nr cycles           0
inc. cycle          1

freq/Hz	Re(Z)/Ohm	-Im(Z)/Ohm	|Z|/Ohm	Phase(Z)/deg	time/s	<Ewe>/V	<I>/mA	Cs/µF	Cp/µF	cycle number	I Range	|Ewe|/V	|I|/A	Ns	(Q-Qo)/mA.h	Re(Y)/Ohm-1	Im(Y)/Ohm-1	|Y|/Ohm-1	Phase(Y)/deg	Re(C)/nF	Im(C)/nF	|C|/nF	Phase(C)/deg	Re(M)	Im(M)	|M|	Phase(M)/deg	Re(Permittivity)	Im(Permittivity)	|Permittivity|	Phase(Permittivity)/deg	Re(Resistivity)/Ohm.cm	Im(Resistivity)/Ohm.cm	|Resistivity|/Ohm.cm	Phase(Resistivity)/deg	Re(Conductivity)/mS/cm	Im(Conductivity)/mS/cm	|Conductivity|/mS/cm	Phase(Conductivity)/deg	Tan(Delta)	Loss Angle(Delta)/deg	dq/mA.h
399996	10.9503	2.6703	11.2711	-13.7045	143.137	0.0237545	-0.00779255	0.149006	0.00836351	1	38	0.00492354	0.000436827	0	-2.68138e-06	0.0861963	0.0210196	0.0887222	13.7045	8.36351	34.2967	35.3018	-76.2955	0.0000000E+000	0.0000000E+000	0.0000000E+000	76.2955	0.0000000E+000	0.0000000E+000	0.0000000E+000	-76.2955	0.0000000E+000	0.0000000E+000	0.0000000E+000	-13.7045	0.0000000E+000	0.0000000E+000	0.0000000E+000	13.7045	4.10076	76.2955	-2.68138e-06
50326.6	11.5225	1.88526	11.6757	-9.29214	148.097	0.0237747	0.000705378	1.67746	0.0437348	1	38	0.00512129	0.000438628	0	-2.57858e-06	0.084524	0.0138294	0.0856479	9.29214	43.7348	267.302	270.857	-80.7079	0.0000000E+000	0.0000000E+000	0.0000000E+000	80.7079	0.0000000E+000	0.0000000E+000	0.0000000E+000	-80.7079	0.0000000E+000	0.0000000E+000	0.0000000E+000	-9.29214	0.0000000E+000	0.0000000E+000	0.0000000E+000	9.29214	6.1119	80.7079	-1.19446e-08
6332.63	13.773	7.9991	15.9274	-30.1471	153.157	0.0236367	0.000604827	3.14192	0.792478	1	38	0.005465	0.000343119	0	-4.9274e-07	0.0542925	0.031532	0.0627849	30.1471	792.478	1364.51	1577.94	-59.8529	0.0000000E+000	0.0000000E+000	0.0000000E+000	59.8529	0.0000000E+000	0.0000000E+000	0.0000000E+000	-59.8529	0.0000000E+000	0.0000000E+000	0.0000000E+000	-30.1471	0.0000000E+000	0.0000000E+000	0.0000000E+000	30.1471	1.72182	59.8529	1.1895e-07
796.787	24.072	44.4892	50.5841	-61.5833	159.781	0.0236463	-0.000257977	4.48976	3.47299	1	39	0.00503303	9.94982e-05	0	-8.52142e-09	0.00940771	0.0173871	0.019769	61.5833	3472.99	1879.15	3948.78	-28.4167	0.0000000E+000	0.0000000E+000	0.0000000E+000	28.4167	0.0000000E+000	0.0000000E+000	0.0000000E+000	-28.4167	0.0000000E+000	0.0000000E+000	0.0000000E+000	-61.5833	0.0000000E+000	0.0000000E+000	0.0000000E+000	61.5833	0.541075	28.4167	-9.98466e-08
100.224	82.8374	249.755	263.134	-71.6506	166.182	0.0236624	-2.9284e-05	6.35818	5.72805	1	40	0.00481431	1.82961e-05	0	2.53465e-07	0.00119639	0.00360712	0.00380035	71.6506	5728.05	1899.85	6034.9	-18.3494	0.0000000E+000	0.0000000E+000	0.0000000E+000	18.3494	0.0000000E+000	0.0000000E+000	0.0000000E+000	-18.3494	0.0000000E+000	0.0000000E+000	0.0000000E+000	-71.6506	0.0000000E+000	0.0000000E+000	0.0000000E+000	71.6506	0.331675	18.3494	1.01289e-08
12.6144	389.374	1409.94	1462.72	-74.5618	172.69	0.0236839	-1.66674e-05	8.94858	8.31447	1	41	0.00475568	3.25126e-06	0	1.47011e-07	0.000181989	0.000658991	0.000683659	74.5618	8314.47	2296.15	8625.7	-15.4382	0.0000000E+000	0.0000000E+000	0.0000000E+000	15.4382	0.0000000E+000	0.0000000E+000	0.0000000E+000	-15.4382	0.0000000E+000	0.0000000E+000	0.0000000E+000	-74.5618	0.0000000E+000	0.0000000E+000	0.0000000E+000	74.5618	0.276164	15.4382	-4.31145e-08
1.5863	2039.9	8327.19	8573.41	-76.2354	182.687	0.0236474	-1.38466e-05	12.0486	11.3665	1	42	0.00475956	5.55153e-07	0	1.0221e-07	2.77525e-05	0.00011329	0.00011664	76.2354	11366.5	2784.44	11702.6	-13.7646	0.0000000E+000	0.0000000E+000	0.0000000E+000	13.7646	0.0000000E+000	0.0000000E+000	0.0000000E+000	-13.7646	0.0000000E+000	0.0000000E+000	0.0000000E+000	-76.2354	0.0000000E+000	0.0000000E+000	0.0000000E+000	76.2354	0.244969	13.7646	2.40209e-10
0.199573	13697.6	53268.4	55001.4	-75.5792	250.847	0.0236821	-7.16021e-07	14.9709	14.0424	1	43	0.00475267	8.64101e-08	0	3.38802e-08	4.52791e-06	1.76085e-05	1.81814e-05	75.5792	14042.4	3610.89	14499.2	-14.4208	0.0000000E+000	0.0000000E+000	0.0000000E+000	14.4208	0.0000000E+000	0.0000000E+000	0.0000000E+000	-14.4208	0.0000000E+000	0.0000000E+000	0.0000000E+000	-75.5792	0.0000000E+000	0.0000000E+000	0.0000000E+000	75.5792	0.257143	14.4208	1.94163e-09
126447	11.1804	1.65027	11.3016	-8.39642	331.885	0.0237549	-0.00256046	0.762702	0.0162625	2	38	0.00515672	0.000456283	0	-5.81271e-06	0.0875349	0.0129204	0.0884833	8.39642	16.2625	110.177	111.371	-81.6036	0.0000000E+000	0.0000000E+000	0.0000000E+000	81.6036	0.0000000E+000	0.0000000E+000	0.0000000E+000	-81.6036	0.0000000E+000	0.0000000E+000	0.0000000E+000	-8.39642	0.0000000E+000	0.0000000E+000	0.0000000E+000	8.39642	6.77491	81.6036	-5.2409e-07
15912.6	12.4187	4.72892	13.2886	-20.8464	336.846	0.0237699	-0.00150102	2.11503	0.267845	2	38	0.00508055	0.000382324	0	-8.53784e-06	0.0703264	0.0267797	0.0752526	20.8464	267.845	703.391	752.661	-69.1536	0.0000000E+000	0.0000000E+000	0.0000000E+000	69.1536	0.0000000E+000	0.0000000E+000	0.0000000E+000	-69.1536	0.0000000E+000	0.0000000E+000	0.0000000E+000	-20.8464	0.0000000E+000	0.0000000E+000	0.0000000E+000	20.8464	2.62611	69.1536	2.84524e-07
2001.92	17.9262	26.0357	31.6102	-55.4516	342.652	0.0236624	-0.00155875	3.05355	2.07151	2	38	0.00487935	0.00015436	0	-1.18497e-05	0.0179405	0.0260564	0.0316354	55.4516	2071.51	1426.29	2515.05	-34.5484	0.0000000E+000	0.0000000E+000	0.0000000E+000	34.5484	0.0000000E+000	0.0000000E+000	0.0000000E+000	-34.5484	0.0000000E+000	0.0000000E+000	0.0000000E+000	-55.4516	0.0000000E+000	0.0000000E+000	0.0000000E+000	55.4516	0.688526	34.5484	-2.93352e-07
[...]
39971.8	11.7014	2.59601	11.9859	-12.5087	520.118	0.0237811	-0.00281182	1.53377	0.0719499	3	38	0.00520054	0.000433888	0	-1.95324e-05	0.0814509	0.0180702	0.0834313	12.5087	71.9499	324.311	332.197	-77.4913	0.0000000E+000	0.0000000E+000	0.0000000E+000	77.4913	0.0000000E+000	0.0000000E+000	0.0000000E+000	-77.4913	0.0000000E+000	0.0000000E+000	0.0000000E+000	-12.5087	0.0000000E+000	0.0000000E+000	0.0000000E+000	12.5087	4.50746	77.4913	-1.30861e-07
5028.39	14.3199	12.9654	19.3174	-42.1582	525.311	0.0236571	-0.00287141	2.4412	1.09972	3	38	0.00537608	0.000278303	0	-2.33111e-05	0.0383745	0.0347449	0.0517669	42.1582	1099.72	1214.6	1638.49	-47.8418	0.0000000E+000	0.0000000E+000	0.0000000E+000	47.8418	0.0000000E+000	0.0000000E+000	0.0000000E+000	-47.8418	0.0000000E+000	0.0000000E+000	0.0000000E+000	-42.1582	0.0000000E+000	0.0000000E+000	0.0000000E+000	42.1582	1.10446	47.8418	-4.86968e-07
632.773	30.379	75.2125	81.116	-68.0057	531.941	0.0236564	6.87444e-05	3.34413	2.87508	3	39	0.00460747	5.6801e-05	0	-2.67136e-05	0.00461701	0.0114308	0.012328	68.0057	2875.08	1161.27	3100.75	-21.9943	0.0000000E+000	0.0000000E+000	0.0000000E+000	21.9943	0.0000000E+000	0.0000000E+000	0.0000000E+000	-21.9943	0.0000000E+000	0.0000000E+000	0.0000000E+000	-68.0057	0.0000000E+000	0.0000000E+000	0.0000000E+000	68.0057	0.40391	21.9943	2.39694e-08
79.6177	127.918	416.379	435.585	-72.9223	538.565	0.0236637	-2.01757e-05	4.8009	4.38686	3	40	0.00496591	1.14006e-05	0	-2.68429e-05	0.000674194	0.00219454	0.00229576	72.9223	4386.86	1347.71	4589.21	-17.0777	0.0000000E+000	0.0000000E+000	0.0000000E+000	17.0777	0.0000000E+000	0.0000000E+000	0.0000000E+000	-17.0777	0.0000000E+000	0.0000000E+000	0.0000000E+000	-72.9223	0.0000000E+000	0.0000000E+000	0.0000000E+000	72.9223	0.307214	17.0777	-3.47564e-09
10.016	661.527	2267.26	2361.8	-73.7341	545.023	0.0236971	5.06691e-06	7.00847	6.45863	3	41	0.0049134	2.08037e-06	0	-2.68076e-05	0.000118594	0.000406459	0.000423407	73.7341	6458.63	1884.46	6727.94	-16.2659	0.0000000E+000	0.0000000E+000	0.0000000E+000	16.2659	0.0000000E+000	0.0000000E+000	0.0000000E+000	-16.2659	0.0000000E+000	0.0000000E+000	0.0000000E+000	-73.7341	0.0000000E+000	0.0000000E+000	0.0000000E+000	73.7341	0.291774	16.2659	1.99336e-09
1.25968	3214.04	13000.5	13391.9	-76.1136	556.852	0.0236776	4.25694e-06	9.71852	9.15874	3	42	0.00490689	3.66406e-07	0	-2.67842e-05	1.79211e-05	7.24894e-05	7.46719e-05	76.1136	9158.74	2264.26	9434.48	-13.8864	0.0000000E+000	0.0000000E+000	0.0000000E+000	13.8864	0.0000000E+000	0.0000000E+000	0.0000000E+000	-13.8864	0.0000000E+000	0.0000000E+000	0.0000000E+000	-76.1136	0.0000000E+000	0.0000000E+000	0.0000000E+000	76.1136	0.247223	13.8864	1.22657e-08
0.158469	19964.7	77708.5	80232.2	-75.5913	641.534	0.0236579	4.09747e-06	12.9243	12.1241	3	43	0.0048983	6.10515e-08	0	-2.66785e-05	3.10145e-06	1.20718e-05	1.24638e-05	75.5913	12124.1	3114.88	12517.8	-14.4087	0.0000000E+000	0.0000000E+000	0.0000000E+000	14.4087	0.0000000E+000	0.0000000E+000	0.0000000E+000	-14.4087	0.0000000E+000	0.0000000E+000	0.0000000E+000	-75.5913	0.0000000E+000	0.0000000E+000	0.0000000E+000	75.5913	0.256917	14.4087	2.81369e-08
0.100022	31237.2	116004	120136	-74.9291	697.293	0.0236752	4.03424e-06	13.7168	12.7894	3	43	0.00490207	4.08043e-08	0	-2.66236e-05	2.16433e-06	8.03759e-06	8.32389e-06	74.9291	12789.4	3443.89	13245	-15.0709	0.0000000E+000	0.0000000E+000	0.0000000E+000	15.0709	0.0000000E+000	0.0000000E+000	0.0000000E+000	-15.0709	0.0000000E+000	0.0000000E+000	0.0000000E+000	-74.9291	0.0000000E+000	0.0000000E+000	0.0000000E+000	74.9291	0.269277	15.0709	2.72966e-08