Folder: Thesis/Python/Experiments/RDE/Dicarboxylferrocene/Data (part 5)

File: 240327-CVEIS-5mM_DiCaFerrocene-1M_NaCl-ReNeutralized-453p5mVvsRef-2000RPM-Ag_AgCl_BLF8-Au_RDE_01_CV_C15.mpt
EC-Lab ASCII FILE
Nb header lines : 59

Cyclic Voltammetry

Run on channel : 15 (SN 19485)
User :
Electrode connection : standard
Potential control : Ewe
Ewe ctrl range : min = -1.00 V, max = 1.00 V
Ewe,I filtering : <None>
Safety Limits :
	Do not start on E overload
Channel : Floating
Acquisition started on : 03/27/2024 16:11:02.884
Loaded Setting File :  C:\Data\mathias\GoldElectrode\240327-CVEIS-5mM_DiCaFerrocene-1M_NaCl-2000RPM-Ag_AgCl_BLF8-Au_RDE.mps
Saved on :
	File : 240327-CVEIS-5mM_DiCaFerrocene-1M_NaCl-ReNeutralized-453p5mVvsRef-2000RPM-Ag_AgCl_BLF8-Au_RDE_01_CV_C15.mpr
	Directory : C:\Data\mathias\GoldElectrode\
	Host : 192.168.0.1
Device : VMP-300 (SN 0826)
Address : USB
EC-Lab for windows v11.52 (software)
Internet server v11.52 (firmware)
Command interpretor v11.52 (firmware)
Electrode material :
Initial state :
Electrolyte :
Comments :
Cable : special
Electrode surface area : 0.001 cm²
Characteristic mass : 0.001 g
Equivalent Weight : 0.000 g/eq.
Density : 0.000 g/cm3
Volume (V) : 0.001 cm³
Cycle Definition : Charge/Discharge alternance
Ei (V)              0.000
vs.                 Eoc
dE/dt               20.000
dE/dt unit          mV/s
E1 (V)              0.700
vs.                 Ref
Step percent        50
N                   10
E range min (V)     -1.000
E range max (V)     1.000
I Range             Auto
I Range min         Unset
I Range max         Unset
I Range init        Unset
Bandwidth           8
E2 (V)              0.000
vs.                 Ref
nc cycles           1
Reverse Scan        1
Ef (V)              0.000
vs.                 Eoc

mode	ox/red	error	control changes	counter inc.	time/s	control/V	Ewe/V	<I>/mA	cycle number	(Q-Qo)/C	I Range	step time/s	P/W
2	1	1	1	0	0.000000000000000E+000	-0.113177	-0.113091	0.000338195	1	0.0000000E+000	43	0.000000000000000E+000	-3.82469e-08
2	1	0	1	0	1.2382	-0.0884137	-0.0880488	0.000246092	1	2.56473e-07	43	1.2244	-2.16681e-08
2	1	0	1	0	2.4876	-0.0634257	-0.0630809	0.000258976	1	5.71666e-07	43	2.4738	-1.63364e-08
2	1	0	1	0	3.737	-0.0384377	-0.0381823	0.000323504	1	9.35201e-07	43	3.7232	-1.23521e-08
2	1	0	1	0	4.9864	-0.0134496	-0.013248	0.000357976	1	1.35719e-06	43	4.9726	-4.74247e-09
2	1	0	1	0	6.2358	0.0115384	0.0116962	0.000446382	1	1.85473e-06	43	6.222	5.22096e-09
2	1	0	1	0	7.4852	0.0365264	0.0367469	0.000530293	1	2.45842e-06	43	7.4714	1.94866e-08
2	1	0	1	0	8.7346	0.0615145	0.0618197	0.000708022	1	3.22393e-06	43	8.7208	4.37697e-08
2	1	0	1	0	9.984	0.0865025	0.0866954	0.00094034	1	4.24513e-06	43	9.9702	8.15232e-08
2	1	0	1	0	11.2634	0.11209	0.112274	0.00131269	1	5.69029e-06	42	11.2496	1.47381e-07
2	1	0	1	0	12.5128	0.137078	0.137475	0.00179973	1	7.63506e-06	42	12.499	2.47418e-07
2	1	0	1	0	13.7622	0.162066	0.162252	0.00231039	1	1.02063e-05	42	13.7484	3.74866e-07
2	1	0	1	0	15.0116	0.187054	0.187303	0.00282441	1	1.34129e-05	42	14.9978	5.29022e-07
2	1	0	1	0	16.261	0.212042	0.212292	0.00329827	1	1.72215e-05	42	16.2472	7.00196e-07
2	1	0	1	0	17.5104	0.23703	0.237246	0.00407749	1	2.17708e-05	42	17.4966	9.67367e-07
2	1	0	1	0	18.7598	0.262018	0.262329	0.00558767	1	2.76824e-05	42	18.746	1.46581e-06
2	1	0	1	0	20.0092	0.287006	0.287015	0.00860023	1	3.63553e-05	42	19.9954	2.4684e-06
2	1	0	1	0	21.2886	0.312594	0.312806	0.0134389	1	5.02856e-05	41	21.2748	4.20376e-06
2	1	0	1	0	22.538	0.337582	0.337768	0.0195607	1	7.08485e-05	41	22.5242	6.60698e-06
2	1	0	1	0	23.7874	0.36257	0.362875	0.0276685	1	0.000100052	41	23.7736	1.00402e-05
2	1	0	1	0	25.0368	0.387558	0.387789	0.0426386	1	0.000142936	41	25.023	1.65348e-05
2	1	0	1	0	26.2862	0.412546	0.412742	0.0714642	1	0.000212331	41	26.2724	2.94963e-05
2	1	0	1	0	27.5656	0.438134	0.438286	0.122242	1	0.000334059	40	27.5518	5.35769e-05
2	1	0	1	0	28.815	0.463122	0.463297	0.180939	1	0.000523131	40	28.8012	8.38282e-05
2	1	0	1	0	30.0644	0.48811	0.488279	0.22912	1	0.00078135	40	30.0506	0.000111874
2	1	0	1	0	31.3138	0.513098	0.513239	0.259926	1	0.00108932	40	31.3	0.000133404
2	1	0	1	0	32.5632	0.538086	0.538283	0.277068	1	0.00142603	40	32.5494	0.000149141
2	1	0	1	0	33.8126	0.563074	0.563337	0.286918	1	0.00177866	40	33.7988	0.000161632
2	1	0	1	0	35.062	0.588062	0.588144	0.292595	1	0.00214109	40	35.0482	0.000172088
2	1	0	1	0	36.3114	0.61305	0.613067	0.29702	1	0.00250973	40	36.2976	0.000182093
2	1	0	1	0	37.5608	0.638038	0.638173	0.299933	1	0.0028828	40	37.547	0.000191409
2	1	0	1	0	38.8102	0.663026	0.663177	0.304508	1	0.0032604	40	38.7964	0.000201943
2	1	0	1	0	40.0596	0.688014	0.688147	0.306435	1	0.00364152	40	40.0458	0.000210872
2	1	0	1	0	41.2721	0.687714	0.687869	0.303305	1	0.00401241	40	41.2583	0.000208634
2	1	0	1	0	42.5215	0.662726	0.662938	0.298248	1	0.00438831	40	42.5077	0.00019772
2	1	0	1	0	43.7709	0.637738	0.637862	0.293839	1	0.00475875	40	43.7571	0.000187429
2	1	0	1	0	45.0203	0.61275	0.613103	0.288877	1	0.00512342	40	45.0065	0.000177111
2	1	0	1	0	46.2697	0.587762	0.587934	0.282147	1	0.00548083	40	46.2559	0.000165884
2	1	0	1	0	47.5191	0.562774	0.562979	0.275708	1	0.00582951	40	47.5053	0.000155218
2	1	0	1	0	48.7685	0.537786	0.538016	0.263297	1	0.00616665	40	48.7547	0.000141658
2	1	0	1	0	50.0179	0.512798	0.512901	0.245454	1	0.00648546	40	50.0041	0.000125894
2	1	0	1	0	51.2673	0.48781	0.487912	0.213986	1	0.00677309	40	51.2535	0.000104406
2	1	0	1	0	52.5167	0.462822	0.463102	0.165979	1	0.00701155	40	52.5029	7.68651e-05
2	1	0	1	0	53.7661	0.437834	0.437928	0.110279	1	0.00718355	40	53.7523	4.8294e-05
2	1	0	1	0	55.0155	0.412846	0.413096	0.064564	1	0.0072904	40	55.0017	2.66711e-05
2	1	0	1	0	56.2949	0.387258	0.387394	0.0367424	1	0.00735293	41	56.2811	1.42338e-05
2	1	0	1	0	57.5443	0.36227	0.362559	0.0229519	1	0.00738932	41	57.5305	8.32141e-06
2	1	0	1	0	58.7937	0.337282	0.337526	0.0154148	1	0.00741297	41	58.7799	5.20291e-06
2	1	0	1	0	60.0431	0.312294	0.312432	0.00934694	1	0.00742831	41	60.0293	2.92028e-06
2	1	0	1	0	61.2925	0.287306	0.287407	0.00484446	1	0.007437	41	61.2787	1.39233e-06
2	1	0	1	0	62.5719	0.261719	0.261876	0.00189975	1	0.00744109	42	62.5581	4.97501e-07
2	1	0	1	0	63.8213	0.236731	0.236994	0.000524905	1	0.00744246	42	63.8075	1.24399e-07
2	0	0	1	0	65.1006	0.211143	0.211283	-0.000204242	1	0.00744258	43	0.4497	-4.3153e-08
2	0	0	1	0	66.35	0.186155	0.186426	-0.000544619	1	0.0074421	43	1.6991	-1.01531e-07
2	0	0	1	0	67.5994	0.161168	0.161264	-0.000687011	1	0.00744132	43	2.9485	-1.1079e-07
2	0	0	1	0	68.8488	0.13618	0.136314	-0.00078281	1	0.00744039	43	4.1979	-1.06708e-07
2	0	0	1	0	70.0982	0.111192	0.111441	-0.000808656	1	0.00743939	43	5.4473	-9.01176e-08
2	0	0	1	0	71.3476	0.0862044	0.0864604	-0.000826056	1	0.00743837	43	6.6967	-7.14211e-08
2	0	0	1	0	72.5971	0.0612146	0.0613433	-0.000798552	1	0.00743735	43	7.9462	-4.89859e-08
2	0	0	1	0	73.8465	0.0362266	0.0365116	-0.000796648	1	0.00743635	43	9.1956	-2.90869e-08
2	0	0	1	0	75.0959	0.0112386	0.0113628	-0.000763395	1	0.00743538	43	10.445	-8.67427e-09
2	1	0	1	1	76.3809	0.014487	0.0147465	0.000176814	2	0.00743498	43	0.4798	2.60739e-09
2	1	0	1	1	77.6303	0.039475	0.0398452	0.000377805	2	0.00743534	43	1.7292	1.50537e-08
2	1	0	1	1	78.8797	0.0644631	0.0646821	0.000486658	2	0.00743589	43	2.9786	3.1478e-08
2	1	0	1	1	80.1291	0.0894511	0.0896278	0.000610266	2	0.00743657	43	4.228	5.46968e-08
2	1	0	1	1	81.3785	0.114439	0.114613	0.000741415	2	0.00743742	43	5.4774	8.49756e-08
2	1	0	1	1	82.6279	0.139427	0.139721	0.000957411	2	0.00743847	43	6.7268	1.3377e-07
[...]
2	1	0	1	1	96.4313	0.415495	0.415777	0.0746848	2	0.00763694	41	20.5302	3.10522e-05
2	1	0	1	1	97.7106	0.441082	0.441294	0.12506	2	0.00776349	40	21.8095	5.51882e-05
2	1	0	1	1	98.96	0.46607	0.466277	0.182944	2	0.00795729	40	23.0589	8.53027e-05
2	1	0	1	1	100.209	0.491058	0.491344	0.228131	2	0.00821632	40	24.3083	0.000112091
2	1	0	1	1	101.459	0.516045	0.516136	0.255845	2	0.00852065	40	25.5577	0.000132051
2	1	0	1	1	102.708	0.541033	0.541269	0.27175	2	0.00885142	40	26.8071	0.00014709
2	1	0	1	1	103.958	0.566021	0.566263	0.280146	2	0.00919639	40	28.0565	0.000158637
2	1	0	1	1	105.207	0.591011	0.591282	0.286349	2	0.00955101	40	29.306	0.000169313
2	1	0	1	1	106.456	0.615999	0.616364	0.291004	2	0.00991179	40	30.5554	0.000179365
2	1	0	1	1	107.706	0.640987	0.641179	0.294057	2	0.0102777	40	31.8048	0.000188543
2	1	0	1	1	108.955	0.665975	0.666166	0.298027	2	0.0106484	40	33.0542	0.000198535
2	1	0	1	1	110.205	0.690963	0.69107	0.29929	2	0.0110224	40	34.3036	0.00020683
2	1	0	1	1	111.42	0.684716	0.684946	0.297184	2	0.0113867	40	35.5185	0.000203555
2	1	0	1	1	112.669	0.659728	0.659916	0.2924	2	0.0117552	40	36.7679	0.00019296
2	1	0	1	1	113.918	0.63474	0.634911	0.288193	2	0.0121186	40	38.0173	0.000182977
2	1	0	1	1	115.168	0.609752	0.609928	0.283222	2	0.0124754	40	39.2667	0.000172745
2	1	0	1	1	116.417	0.584764	0.584962	0.276708	2	0.0128249	40	40.5161	0.000161863
2	1	0	1	1	117.667	0.559776	0.559987	0.268618	2	0.0131649	40	41.7655	0.000150423
2	1	0	1	1	118.916	0.534788	0.534964	0.255859	2	0.0134923	40	43.0149	0.000136875
2	1	0	1	1	120.165	0.5098	0.50988	0.235813	2	0.0138	40	44.2643	0.000120236
2	1	0	1	1	121.415	0.484812	0.484981	0.202662	2	0.0140754	40	45.5137	9.82869e-05
2	1	0	1	1	122.664	0.459824	0.460067	0.155351	2	0.0143003	40	46.7631	7.14719e-05
2	1	0	1	1	123.914	0.434836	0.435095	0.101534	2	0.0144601	40	48.0125	4.41768e-05
2	1	0	1	1	125.163	0.409848	0.41003	0.0593095	2	0.0145583	40	49.2619	2.43187e-05
2	1	0	1	1	126.442	0.38426	0.3845	0.0338539	2	0.0146158	41	50.5413	1.30168e-05
2	1	0	1	1	127.692	0.359272	0.35946	0.021606	2	0.0146496	41	51.7907	7.76647e-06
2	1	0	1	1	128.941	0.334284	0.334479	0.0142884	2	0.0146717	41	53.0401	4.77917e-06
2	1	0	1	1	130.191	0.309296	0.309529	0.00861375	2	0.0146858	41	54.2895	2.66621e-06
2	1	0	1	1	131.47	0.283708	0.283837	0.00405301	2	0.0146937	42	55.5689	1.15039e-06
2	1	0	1	1	132.719	0.25872	0.258852	0.00155702	2	0.0146971	42	56.8183	4.03039e-07
2	1	0	1	1	133.999	0.233132	0.233306	0.000225758	2	0.0146981	43	58.0977	5.26707e-08
2	0	0	1	1	135.248	0.208144	0.208372	-0.000357268	2	0.014698	43	0.7996	-7.44446e-08
2	0	0	1	1	136.498	0.183156	0.183441	-0.000627227	2	0.0146973	43	2.049	-1.15059e-07
2	0	0	1	1	137.747	0.158168	0.158319	-0.000775413	2	0.0146964	43	3.2984	-1.22763e-07
2	0	0	1	1	138.996	0.13318	0.133495	-0.000835521	2	0.0146954	43	4.5478	-1.11538e-07
2	0	0	1	1	140.246	0.108192	0.108545	-0.000861236	2	0.0146944	43	5.7972	-9.34832e-08
2	0	0	1	1	141.495	0.0832041	0.0833873	-0.000848699	2	0.0146933	43	7.0466	-7.07707e-08
2	0	0	1	1	142.745	0.058216	0.0584321	-0.000843356	2	0.0146922	43	8.296	-4.92791e-08
2	0	0	1	1	143.994	0.033228	0.03346	-0.00080885	2	0.0146912	43	9.5454	-2.70641e-08
2	0	0	1	1	145.243	0.00824	0.00864528	-0.000795935	2	0.0146902	43	10.7948	-6.88108e-09
2	0	0	1	0	146.468	-0.0162483	-0.0161067	-0.000768713	2	0.0146892	43	12.0198	1.23814e-08
2	0	0	1	0	147.718	-0.0412363	-0.0409129	-0.000761884	2	0.0146883	43	13.2692	3.11709e-08
2	0	0	1	0	148.967	-0.0662244	-0.0657136	-0.000753826	2	0.0146873	43	14.5186	4.95366e-08
2	0	0	1	0	150.217	-0.0912124	-0.0910456	-0.000744283	2	0.0146864	43	15.768	6.77637e-08
2	0	0	0	0	151.371	-0.114326	-0.11408	-0.000715199	2	0.0146856	43	16.922	8.15898e-08

File: 240327-CVEIS-5mM_DiCaFerrocene-1M_NaCl-ReNeutralized-453p5mVvsRef-2000RPM-Ag_AgCl_BLF8-Au_RDE_02_PEIS_C15.mpt
EC-Lab ASCII FILE
Nb header lines : 65

Potentio Electrochemical Impedance Spectroscopy

Run on channel : 15 (SN 19485)
User :
Electrode connection : standard
Potential control : Ewe
Ewe ctrl range : min = -1.00 V, max = 1.00 V
Ewe,I filtering : <None>
Safety Limits :
	Do not start on E overload
Channel : Floating
Acquisition started on : 03/27/2024 16:11:02.884
Loaded Setting File :  C:\Data\mathias\GoldElectrode\240327-CVEIS-5mM_DiCaFerrocene-1M_NaCl-2000RPM-Ag_AgCl_BLF8-Au_RDE.mps
Saved on :
	File : 240327-CVEIS-5mM_DiCaFerrocene-1M_NaCl-ReNeutralized-453p5mVvsRef-2000RPM-Ag_AgCl_BLF8-Au_RDE_02_PEIS_C15.mpr
	Directory : C:\Data\mathias\GoldElectrode\
	Host : 192.168.0.1
Device : VMP-300 (SN 0826)
Address : USB
EC-Lab for windows v11.52 (software)
Internet server v11.52 (firmware)
Command interpretor v11.52 (firmware)
Electrode material :
Initial state :
Electrolyte :
Comments :
Cable : special
Electrode surface area : 0.001 cm²
Characteristic mass : 0.001 g
Equivalent Weight : 0.000 g/eq.
Density : 0.000 g/cm3
Volume (V) : 0.001 cm³
Cycle Definition : Charge/Discharge alternance
Mode                Multi sine
E (V)               0.4535
vs.                 Ref
tE (h:m:s)          0:00:30.0000
record              0
dI                  0.000
unit dI             mA
dt (s)              0.000
fi                  400.000
unit fi             kHz
ff                  100.000
unit ff             mHz
Nd                  10
Points              per decade
spacing             Logarithmic
Va (mV)             14.1
pw                  0.10
Na                  3
corr                0
E range min (V)     -1.000
E range max (V)     1.000
I Range             Auto
Bandwidth           8
nc cycles           2
goto Ns'            0
nr cycles           0
inc. cycle          1

freq/Hz	Re(Z)/Ohm	-Im(Z)/Ohm	|Z|/Ohm	Phase(Z)/deg	time/s	<Ewe>/V	<I>/mA	Cs/µF	Cp/µF	cycle number	I Range	|Ewe|/V	|I|/A	Ns	(Q-Qo)/mA.h	Re(Y)/Ohm-1	Im(Y)/Ohm-1	|Y|/Ohm-1	Phase(Y)/deg	Re(C)/nF	Im(C)/nF	|C|/nF	Phase(C)/deg	Re(M)	Im(M)	|M|	Phase(M)/deg	Re(Permittivity)	Im(Permittivity)	|Permittivity|	Phase(Permittivity)/deg	Re(Resistivity)/Ohm.cm	Im(Resistivity)/Ohm.cm	|Resistivity|/Ohm.cm	Phase(Resistivity)/deg	Re(Conductivity)/mS/cm	Im(Conductivity)/mS/cm	|Conductivity|/mS/cm	Phase(Conductivity)/deg	Tan(Delta)	Loss Angle(Delta)/deg	dq/mA.h
399996	10.9841	2.96692	11.3778	-15.1154	183.171	0.45334	0.136135	0.134109	0.00911917	1	38	0.0134474	0.0011819	0	0.0012943	0.0848498	0.0229188	0.0878906	15.1154	9.11917	33.761	34.9709	-74.8846	0.0000000E+000	0.0000000E+000	0.0000000E+000	74.8846	0.0000000E+000	0.0000000E+000	0.0000000E+000	-74.8846	0.0000000E+000	0.0000000E+000	0.0000000E+000	-15.1154	0.0000000E+000	0.0000000E+000	0.0000000E+000	15.1154	3.7022	74.8846	0.0012943
126447	11.3374	1.55246	11.4432	-7.79718	185.926	0.453366	0.136688	0.810757	0.0149224	1	38	0.0145256	0.00126937	0	0.0014	0.0865806	0.0118557	0.0873885	7.79718	14.9224	108.976	109.993	-82.2028	0.0000000E+000	0.0000000E+000	0.0000000E+000	82.2028	0.0000000E+000	0.0000000E+000	0.0000000E+000	-82.2028	0.0000000E+000	0.0000000E+000	0.0000000E+000	-7.79718	0.0000000E+000	0.0000000E+000	0.0000000E+000	7.79718	7.30285	82.2028	2.04283e-05
39971.8	11.7699	2.01472	11.9411	-9.71352	188.681	0.45338	0.137748	1.97629	0.0562592	1	38	0.0145456	0.00121811	0	0.00150521	0.0825438	0.0141295	0.0837444	9.71352	56.2592	328.663	333.443	-80.2865	0.0000000E+000	0.0000000E+000	0.0000000E+000	80.2865	0.0000000E+000	0.0000000E+000	0.0000000E+000	-80.2865	0.0000000E+000	0.0000000E+000	0.0000000E+000	-9.71352	0.0000000E+000	0.0000000E+000	0.0000000E+000	9.71352	5.84194	80.2865	1.99249e-05
12637.3	12.9221	4.13208	13.5667	-17.7326	191.437	0.45336	0.13715	3.04787	0.28274	1	38	0.0143578	0.00105831	0	0.00161316	0.0702079	0.0224503	0.07371	17.7326	282.74	884.201	928.307	-72.2674	0.0000000E+000	0.0000000E+000	0.0000000E+000	72.2674	0.0000000E+000	0.0000000E+000	0.0000000E+000	-72.2674	0.0000000E+000	0.0000000E+000	0.0000000E+000	-17.7326	0.0000000E+000	0.0000000E+000	0.0000000E+000	17.7326	3.12726	72.2674	2.22223e-05
3993.72	15.9097	9.08243	18.3197	-29.7209	194.778	0.453257	0.136213	4.38774	1.07848	1	38	0.014354	0.000783528	0	0.0017361	0.0474054	0.0270625	0.0545862	29.7209	1078.48	1889.17	2175.33	-60.2791	0.0000000E+000	0.0000000E+000	0.0000000E+000	60.2791	0.0000000E+000	0.0000000E+000	0.0000000E+000	-60.2791	0.0000000E+000	0.0000000E+000	0.0000000E+000	-29.7209	0.0000000E+000	0.0000000E+000	0.0000000E+000	29.7209	1.7517	60.2791	2.60945e-05
1262.98	23.7374	18.595	30.1535	-38.0738	198.198	0.453251	0.1359	6.77688	2.57717	1	38	0.0141064	0.00046782	0	0.00186284	0.026107	0.0204512	0.0331636	38.0738	2577.17	3289.89	4179.14	-51.9262	0.0000000E+000	0.0000000E+000	0.0000000E+000	51.9262	0.0000000E+000	0.0000000E+000	0.0000000E+000	-51.9262	0.0000000E+000	0.0000000E+000	0.0000000E+000	-38.0738	0.0000000E+000	0.0000000E+000	0.0000000E+000	38.0738	1.27655	51.9262	2.53084e-05
399.106	41.9102	31.8442	52.6357	-37.2283	201.875	0.453284	0.143053	12.5228	4.58355	1	39	0.0141897	0.000269583	0	0.00200498	0.0151272	0.011494	0.0189985	37.2283	4583.55	6032.41	7576.2	-52.7717	0.0000000E+000	0.0000000E+000	0.0000000E+000	52.7717	0.0000000E+000	0.0000000E+000	0.0000000E+000	-52.7717	0.0000000E+000	0.0000000E+000	0.0000000E+000	-37.2283	0.0000000E+000	0.0000000E+000	0.0000000E+000	37.2283	1.3161	52.7717	2.70815e-05
126.171	70.8906	42.8851	82.8529	-31.1717	205.284	0.453285	0.1427	29.414	7.88044	1	39	0.0139842	0.000168783	0	0.00213892	0.010327	0.00624727	0.0120696	31.1717	7880.44	13026.7	15224.8	-58.8283	0.0000000E+000	0.0000000E+000	0.0000000E+000	58.8283	0.0000000E+000	0.0000000E+000	0.0000000E+000	-58.8283	0.0000000E+000	0.0000000E+000	0.0000000E+000	-31.1717	0.0000000E+000	0.0000000E+000	0.0000000E+000	31.1717	1.65304	58.8283	2.66455e-05
39.8851	103.896	53.5066	116.865	-27.2485	208.718	0.453284	0.143293	74.5765	15.6332	1	39	0.0139585	0.000119441	0	0.00227339	0.00760733	0.00391777	0.00855689	27.2485	15633.2	30355.8	34144.9	-62.7515	0.0000000E+000	0.0000000E+000	0.0000000E+000	62.7515	0.0000000E+000	0.0000000E+000	0.0000000E+000	-62.7515	0.0000000E+000	0.0000000E+000	0.0000000E+000	-27.2485	0.0000000E+000	0.0000000E+000	0.0000000E+000	27.2485	1.94175	62.7515	2.67658e-05
12.6144	142.927	77.0359	162.365	-28.3242	212.426	0.45327	0.143038	163.78	36.8689	1	40	0.0139839	8.61259e-05	0	0.00241829	0.00542158	0.00292217	0.00615894	28.3242	36868.9	68403.9	77707.2	-61.6758	0.0000000E+000	0.0000000E+000	0.0000000E+000	61.6758	0.0000000E+000	0.0000000E+000	0.0000000E+000	-61.6758	0.0000000E+000	0.0000000E+000	0.0000000E+000	-28.3242	0.0000000E+000	0.0000000E+000	0.0000000E+000	28.3242	1.85533	61.6758	3.13484e-05
4.00395	272.98	190.555	332.911	-34.9171	244.326	0.453175	0.140672	208.599	68.3435	1	40	0.0141107	4.23858e-05	0	0.00365663	0.00246307	0.00171935	0.00300381	34.9171	68343.5	97905.7	119400	-55.0829	0.0000000E+000	0.0000000E+000	0.0000000E+000	55.0829	0.0000000E+000	0.0000000E+000	0.0000000E+000	-55.0829	0.0000000E+000	0.0000000E+000	0.0000000E+000	-34.9171	0.0000000E+000	0.0000000E+000	0.0000000E+000	34.9171	1.43255	55.0829	0.000000000000000E+000
[...]
100431	11.394	1.53387	11.4968	-7.66712	249.424	0.453384	0.137133	1.03315	0.0183904	2	38	0.0145311	0.00126392	0	0.00384458	0.0862031	0.0116047	0.0869807	7.66712	18.3904	136.608	137.841	-82.3329	0.0000000E+000	0.0000000E+000	0.0000000E+000	82.3329	0.0000000E+000	0.0000000E+000	0.0000000E+000	-82.3329	0.0000000E+000	0.0000000E+000	0.0000000E+000	-7.66712	0.0000000E+000	0.0000000E+000	0.0000000E+000	7.66712	7.42826	82.3329	2.12597e-05
31751	11.9062	2.35347	12.1365	-11.1814	252.18	0.453366	0.137794	2.12987	0.0800905	2	38	0.0145084	0.00119543	0	0.00394699	0.0808317	0.0159779	0.0823958	11.1814	80.0905	405.176	413.016	-78.8186	0.0000000E+000	0.0000000E+000	0.0000000E+000	78.8186	0.0000000E+000	0.0000000E+000	0.0000000E+000	-78.8186	0.0000000E+000	0.0000000E+000	0.0000000E+000	-11.1814	0.0000000E+000	0.0000000E+000	0.0000000E+000	11.1814	5.05898	78.8186	2.05315e-05
10039.3	13.3107	5.08332	14.2483	-20.9017	254.935	0.453375	0.137492	3.11866	0.396949	2	38	0.0141749	0.000994844	0	0.00405152	0.0655652	0.0250392	0.0701837	20.9017	396.949	1039.41	1112.63	-69.0983	0.0000000E+000	0.0000000E+000	0.0000000E+000	69.0983	0.0000000E+000	0.0000000E+000	0.0000000E+000	-69.0983	0.0000000E+000	0.0000000E+000	0.0000000E+000	-20.9017	0.0000000E+000	0.0000000E+000	0.0000000E+000	20.9017	2.61851	69.0983	1.99499e-05
3171.96	17.0379	11.2886	20.4383	-33.5269	258.409	0.45325	0.136265	4.44479	1.35596	2	38	0.0143964	0.000704383	0	0.00418093	0.0407875	0.0270242	0.0489278	33.5269	1355.96	2046.54	2454.98	-56.4731	0.0000000E+000	0.0000000E+000	0.0000000E+000	56.4731	0.0000000E+000	0.0000000E+000	0.0000000E+000	-56.4731	0.0000000E+000	0.0000000E+000	0.0000000E+000	-33.5269	0.0000000E+000	0.0000000E+000	0.0000000E+000	33.5269	1.5093	56.4731	2.51203e-05
1002.75	27.1607	22.8944	35.5226	-40.1283	262.08	0.453227	0.139695	6.93262	2.87969	2	39	0.0149479	0.000420799	0	0.0043171	0.0215244	0.0181434	0.0281511	40.1283	2879.69	3416.31	4468.09	-49.8717	0.0000000E+000	0.0000000E+000	0.0000000E+000	49.8717	0.0000000E+000	0.0000000E+000	0.0000000E+000	-49.8717	0.0000000E+000	0.0000000E+000	0.0000000E+000	-40.1283	0.0000000E+000	0.0000000E+000	0.0000000E+000	40.1283	1.18635	49.8717	3.46778e-05
316.927	49.7673	37.5813	62.3629	-37.0579	265.501	0.453265	0.139839	13.3626	4.85266	2	39	0.0141232	0.000226467	0	0.00444844	0.0127965	0.00966315	0.0160352	37.0579	4852.66	6426.17	8052.57	-52.9421	0.0000000E+000	0.0000000E+000	0.0000000E+000	52.9421	0.0000000E+000	0.0000000E+000	0.0000000E+000	-52.9421	0.0000000E+000	0.0000000E+000	0.0000000E+000	-37.0579	0.0000000E+000	0.0000000E+000	0.0000000E+000	37.0579	1.32426	52.9421	2.62672e-05
100.224	82.6764	47.7201	95.4599	-29.9932	268.912	0.453259	0.139609	33.2771	8.31583	2	39	0.0139393	0.000146023	0	0.0045793	0.00907277	0.00523672	0.0104756	29.9932	8315.83	14407.4	16635.1	-60.0068	0.0000000E+000	0.0000000E+000	0.0000000E+000	60.0068	0.0000000E+000	0.0000000E+000	0.0000000E+000	-60.0068	0.0000000E+000	0.0000000E+000	0.0000000E+000	-29.9932	0.0000000E+000	0.0000000E+000	0.0000000E+000	29.9932	1.73253	60.0068	2.62198e-05
31.6723	118.653	59.179	132.592	-26.508	272.315	0.453277	0.139761	84.9129	16.915	2	39	0.0139414	0.000105145	0	0.00471	0.00674905	0.00336613	0.00754192	26.508	16915	33914.4	37898.6	-63.492	0.0000000E+000	0.0000000E+000	0.0000000E+000	63.492	0.0000000E+000	0.0000000E+000	0.0000000E+000	-63.492	0.0000000E+000	0.0000000E+000	0.0000000E+000	-26.508	0.0000000E+000	0.0000000E+000	0.0000000E+000	26.508	2.00499	63.492	2.51967e-05