Folder: Thesis/Python/Experiments/RDE/Dicarboxylferrocene/Data (part 3)

File: 240327-CVEIS-5mM_DiCaFerrocene-1M_NaCl-2000RPM-Ag_AgCl_BLF8-Au_RDE_01_CV_C15.mpt
EC-Lab ASCII FILE
Nb header lines : 60

Cyclic Voltammetry

Run on channel : 15 (SN 19485)
User :
Electrode connection : standard
Potential control : Ewe
Ewe ctrl range : min = -1.00 V, max = 1.00 V
Ewe,I filtering : <None>
Safety Limits :
	Do not start on E overload
Channel : Floating
Acquisition started on : 03/27/2024 12:54:48.643
Loaded Setting File :  C:\Data\mathias\GoldElectrode\240322-CVEIS-PostActivation-5mM_Fe2Fe3-1M_H2SO4-2000RPM-Ag_AgCl_BLF8-Au_RDE.mps
Saved on :
	File : 240327-CVEIS-5mM_DiCaFerrocene-1M_NaCl-2000RPM-Ag_AgCl_BLF8-Au_RDE_01_CV_C15.mpr
	Directory : C:\Data\mathias\GoldElectrode\
	Host : 192.168.0.1
Device : VMP-300 (SN 0826)
Address : USB
EC-Lab for windows v11.52 (software)
Internet server v11.52 (firmware)
Command interpretor v11.52 (firmware)
Electrode material :
Initial state :
Electrolyte :
Comments :
Cable : special
Electrode surface area : 0.001 cm²
Characteristic mass : 0.001 g
Equivalent Weight : 0.000 g/eq.
Density : 0.000 g/cm3
Volume (V) : 0.001 cm³
Record EIS quality indicators
Cycle Definition : Charge/Discharge alternance
Ei (V)              0.000
vs.                 Eoc
dE/dt               20.000
dE/dt unit          mV/s
E1 (V)              0.700
vs.                 Ref
Step percent        50
N                   10
E range min (V)     -1.000
E range max (V)     1.000
I Range             Auto
I Range min         Unset
I Range max         Unset
I Range init        Unset
Bandwidth           8
E2 (V)              0.000
vs.                 Ref
nc cycles           1
Reverse Scan        1
Ef (V)              0.000
vs.                 Eoc

mode	ox/red	error	control changes	counter inc.	time/s	control/V	Ewe/V	<I>/mA	cycle number	(Q-Qo)/C	I Range	step time/s	P/W
2	1	0	1	0	0.000000000000000E+000	0.0346523	0.0344418	0.000213073	1	0.0000000E+000	43	0.000000000000000E+000	7.33862e-09
2	1	0	1	0	1.1383	0.0574164	0.0572859	0.00030379	1	2.85256e-07	43	1.1245	1.74029e-08
2	1	0	1	0	2.2877	0.0804054	0.0801693	0.000395875	1	6.81019e-07	43	2.2739	3.17371e-08
2	1	0	1	0	3.4372	0.103394	0.103031	0.00050881	1	1.1942e-06	43	3.4234	5.24234e-08
2	1	0	1	0	4.5866	0.126383	0.126028	0.000672954	1	1.86568e-06	43	4.5728	8.48113e-08
2	1	0	1	0	5.7361	0.149372	0.149044	0.000906339	1	2.77211e-06	43	5.7223	1.35084e-07
2	1	0	1	0	6.9155	0.172961	0.172775	0.00127703	1	4.04755e-06	42	6.9017	2.20638e-07
2	1	0	1	0	8.065	0.19595	0.19564	0.00176531	1	5.77421e-06	42	8.0512	3.45365e-07
2	1	0	1	0	9.2144	0.218939	0.218719	0.00252805	1	8.20601e-06	42	9.2006	5.52933e-07
2	1	0	1	0	10.3639	0.241928	0.241582	0.00374048	1	1.17483e-05	42	10.3501	9.03633e-07
2	1	0	1	0	11.5133	0.264917	0.264508	0.00582377	1	1.71447e-05	42	11.4995	1.54044e-06
2	1	0	1	0	12.6628	0.287906	0.287797	0.00920345	1	2.56498e-05	42	12.649	2.64873e-06
2	1	0	1	0	13.8422	0.311495	0.310925	0.0141276	1	3.93e-05	41	13.8284	4.39264e-06
2	1	0	1	0	14.9916	0.334484	0.334203	0.0200237	1	5.89506e-05	41	14.9778	6.69199e-06
2	1	0	1	0	16.1411	0.357473	0.357118	0.0272646	1	8.60205e-05	41	16.1273	9.73668e-06
2	1	0	1	0	17.2905	0.380462	0.380138	0.0388542	1	0.000123461	41	17.2767	1.47699e-05
2	1	0	1	0	18.44	0.403451	0.403231	0.0605987	1	0.000179392	41	18.4262	2.44353e-05
2	1	0	1	0	19.5894	0.42644	0.426185	0.100498	1	0.000270078	41	19.5756	4.28308e-05
2	1	0	1	0	20.7689	0.450028	0.449765	0.161148	1	0.000422909	40	20.7551	7.24788e-05
2	1	0	1	0	21.9183	0.473017	0.472748	0.227167	1	0.000646745	40	21.9045	0.000107393
2	1	0	1	0	23.0678	0.496006	0.495851	0.281253	1	0.000941288	40	23.054	0.00013946
2	1	0	1	0	24.2172	0.518995	0.518671	0.314796	1	0.00128642	40	24.2034	0.000163275
2	1	0	1	0	25.3667	0.541984	0.541604	0.332605	1	0.00166053	40	25.3529	0.00018014
2	1	0	1	0	26.5161	0.564973	0.564737	0.342265	1	0.00204936	40	26.5023	0.000193289
2	1	0	1	0	27.6656	0.587962	0.58758	0.344944	1	0.00244513	40	27.6518	0.000202682
2	1	0	1	0	28.815	0.610951	0.610514	0.347256	1	0.00284338	40	28.8012	0.000212005
2	1	0	1	0	29.9645	0.63394	0.633664	0.348557	1	0.00324418	40	29.9507	0.000220868
2	1	0	1	0	31.1139	0.656929	0.656733	0.348557	1	0.00364524	40	31.1001	0.000228909
2	1	0	1	0	32.2634	0.679918	0.679534	0.347752	1	0.00404629	40	32.2496	0.000236309
2	1	0	1	0	33.381	0.69771	0.697462	0.348803	1	0.00443658	40	33.3672	0.000243277
2	1	0	1	0	34.5304	0.674721	0.674476	0.346109	1	0.00483511	40	34.5166	0.000233442
2	1	0	1	0	35.6799	0.651732	0.651491	0.344485	1	0.00523136	40	35.6661	0.000224429
2	1	0	1	0	36.8293	0.628743	0.628429	0.34173	1	0.00562515	40	36.8155	0.000214753
2	1	0	1	0	37.9788	0.605754	0.605486	0.337267	1	0.0060155	40	37.965	0.00020421
2	1	0	1	0	39.1282	0.582765	0.582526	0.331776	1	0.00640013	40	39.1144	0.000193268
2	1	0	1	0	40.2776	0.559778	0.559499	0.319914	1	0.00677519	40	40.2638	0.000178991
2	1	0	1	0	41.4271	0.536787	0.536562	0.299173	1	0.00713264	40	41.4133	0.000160525
2	1	0	1	0	42.5766	0.513797	0.513496	0.263733	1	0.00745825	40	42.5628	0.000135426
2	1	0	1	0	43.726	0.490809	0.490591	0.212069	1	0.00773253	40	43.7122	0.000104039
2	1	0	1	0	44.8754	0.467821	0.467381	0.150697	1	0.00794073	40	44.8616	7.04327e-05
2	1	0	1	0	46.0249	0.444831	0.44444	0.0958929	1	0.00808084	40	46.0111	4.26187e-05
2	1	0	1	0	47.1744	0.421841	0.421592	0.0565467	1	0.00816638	40	47.1606	2.38397e-05
2	1	0	1	0	48.3538	0.398253	0.397987	0.032952	1	0.00821757	41	48.34	1.31144e-05
2	1	0	1	0	49.5032	0.375264	0.374893	0.0205773	1	0.00824761	41	49.4894	7.7143e-06
2	1	0	1	0	50.6527	0.352275	0.351915	0.0127307	1	0.00826642	41	50.6389	4.48012e-06
2	1	0	1	0	51.8021	0.329286	0.328863	0.00728531	1	0.00827767	41	51.7883	2.39587e-06
2	1	0	1	0	52.9816	0.305697	0.305428	0.00363545	1	0.00828391	42	52.9678	1.11037e-06
2	1	0	1	0	54.131	0.282708	0.282369	0.00153484	1	0.00828677	42	54.1172	4.33393e-07
2	1	0	1	0	55.3104	0.259122	0.25876	0.000319805	1	0.00828779	43	55.2966	8.27529e-08
2	0	0	1	0	56.4599	0.236131	0.235742	-0.000295348	1	0.00828777	43	0.5997	-6.9626e-08
2	0	0	1	0	57.6094	0.213141	0.212754	-0.000608283	1	0.00828723	43	1.7492	-1.29415e-07
2	0	0	1	0	58.7588	0.190153	0.189691	-0.000768724	1	0.00828642	43	2.8986	-1.4582e-07
2	0	0	1	0	59.9082	0.167165	0.166893	-0.000850853	1	0.00828549	43	4.048	-1.42002e-07
2	0	0	1	0	61.0577	0.144175	0.143873	-0.000893211	1	0.00828448	43	5.1975	-1.28509e-07
2	0	0	1	0	62.2072	0.121185	0.120883	-0.000900536	1	0.00828345	43	6.347	-1.08859e-07
2	0	0	1	0	63.3566	0.0981969	0.0978444	-0.000911916	1	0.00828241	43	7.4964	-8.92259e-08
2	0	0	1	0	64.506	0.0752092	0.0748684	-0.000913606	1	0.00828136	43	8.6458	-6.84003e-08
2	0	0	1	0	65.6555	0.0522189	0.0517923	-0.000913777	1	0.00828031	43	9.7953	-4.73266e-08
2	0	0	1	0	66.805	0.029229	0.0289056	-0.00093903	1	0.00827925	43	10.9448	-2.71433e-08
2	0	0	1	0	67.9544	0.00624095	0.00596102	-0.000976268	1	0.00827815	43	12.0942	-5.81955e-09
2	1	0	1	1	69.1393	0.0174856	0.0173175	8.29666e-05	1	0.00827776	43	0.2249	1.43678e-09
2	1	0	1	1	70.2563	0.0398249	0.0394274	0.000298007	2	0.00827798	43	1.3419	1.17496e-08
2	1	0	1	1	71.4058	0.0628156	0.0624858	0.000408957	2	0.00827839	43	2.4914	2.5554e-08
2	1	0	1	1	72.5552	0.0858028	0.0856127	0.00049683	2	0.00827891	43	3.6408	4.2535e-08
2	1	0	1	1	73.7046	0.108792	0.108663	0.000578061	2	0.00827952	43	4.7902	6.28141e-08
2	1	0	1	1	74.8541	0.131781	0.131383	0.000665804	2	0.00828023	43	5.9397	8.74751e-08
2	1	0	1	1	76.0035	0.15477	0.154554	0.000767292	2	0.00828105	43	7.0891	1.18588e-07
[...]
2	1	0	1	1	91.0064	0.454826	0.454635	0.098187	2	0.00851931	41	22.092	4.46392e-05
2	1	0	1	1	92.1858	0.478415	0.478014	0.155678	2	0.00866754	40	23.2714	7.44164e-05
2	1	0	1	1	93.3352	0.501404	0.501009	0.220261	2	0.0088836	40	24.4208	0.000110353
2	1	0	1	1	94.4847	0.524393	0.524053	0.277028	2	0.00917116	40	25.5703	0.000145177
2	1	0	1	1	95.6341	0.547382	0.547088	0.311256	2	0.0095118	40	26.7197	0.000170284
2	1	0	1	1	96.7836	0.570371	0.570082	0.330283	2	0.00988274	40	27.8692	0.000188289
2	1	0	1	1	97.933	0.59336	0.592944	0.336948	2	0.0102669	40	29.0186	0.000199791
2	1	0	1	1	99.0825	0.616349	0.615858	0.341585	2	0.0106574	40	30.1681	0.000210368
2	1	0	1	1	100.232	0.639338	0.638994	0.342055	2	0.0110501	40	31.3175	0.000218571
2	1	0	1	1	101.381	0.662327	0.661904	0.342591	2	0.0114442	40	32.467	0.000226763
2	1	0	1	1	102.531	0.685316	0.685013	0.343041	2	0.0118385	40	33.6164	0.000234988
2	1	0	1	1	103.653	0.692212	0.691751	0.340791	2	0.0122232	40	34.739	0.000235742
2	1	0	1	1	104.803	0.669223	0.669027	0.337131	2	0.0126127	40	35.8885	0.00022555
2	1	0	1	1	105.952	0.646234	0.646134	0.334165	2	0.0129983	40	37.0379	0.000215916
2	1	0	1	1	107.102	0.623245	0.623051	0.329835	2	0.0133797	40	38.1874	0.000205504
2	1	0	1	1	108.251	0.600256	0.600007	0.319546	2	0.013753	40	39.3368	0.00019173
2	1	0	1	1	109.401	0.577267	0.576897	0.301347	2	0.0141112	40	40.4863	0.000173846
2	1	0	1	1	110.55	0.554278	0.553822	0.269288	2	0.0144405	40	41.6357	0.000149138
2	1	0	1	1	111.7	0.531289	0.53107	0.220994	2	0.0147233	40	42.7852	0.000117363
2	1	0	1	1	112.849	0.5083	0.508033	0.164557	2	0.0149447	40	43.9346	8.36005e-05
2	1	0	1	1	113.998	0.485311	0.485146	0.111258	2	0.0151019	40	45.0841	5.39765e-05
2	1	0	1	1	115.148	0.462322	0.462086	0.0691809	2	0.0152039	40	46.2335	3.19675e-05
2	1	0	1	1	116.327	0.438734	0.438389	0.0399213	2	0.0152668	41	47.413	1.7501e-05
2	1	0	1	1	117.477	0.415745	0.415412	0.0231174	2	0.0153021	41	48.5624	9.60325e-06
2	1	0	1	1	118.626	0.392758	0.39238	0.0130995	2	0.0153224	41	49.7118	5.13997e-06
2	1	0	1	1	119.776	0.369767	0.369501	0.00696104	2	0.0153336	41	50.8613	2.57211e-06
2	1	0	1	1	120.955	0.346178	0.345855	0.00326072	2	0.0153394	42	52.0407	1.12774e-06
2	1	0	1	1	122.105	0.323189	0.322854	0.00132355	2	0.0153419	42	53.1902	4.27314e-07
2	1	0	1	1	123.284	0.2996	0.299318	0.00023227	2	0.0153427	43	54.3696	6.95226e-08
2	0	0	1	1	124.433	0.276611	0.276317	-0.000337658	2	0.0153426	43	0.6997	-9.33006e-08
2	0	0	1	1	125.583	0.253622	0.253463	-0.000654526	2	0.0153421	43	1.8491	-1.65898e-07
2	0	0	1	1	126.732	0.230633	0.230415	-0.000789486	2	0.0153412	43	2.9986	-1.8191e-07
2	0	0	1	1	127.882	0.207644	0.207413	-0.000863579	2	0.0153403	43	4.148	-1.79118e-07
2	0	0	1	1	129.031	0.184655	0.18456	-0.000904806	2	0.0153392	43	5.2975	-1.66991e-07
2	0	0	1	1	130.181	0.161666	0.161479	-0.000920928	2	0.0153382	43	6.4469	-1.48711e-07
2	0	0	1	1	131.33	0.138677	0.138405	-0.000940424	2	0.0153371	43	7.5964	-1.30159e-07
2	0	0	1	1	132.48	0.115688	0.115561	-0.000927517	2	0.0153361	43	8.7458	-1.07185e-07
2	0	0	1	1	133.629	0.0926995	0.0924953	-0.000919773	2	0.015335	43	9.8953	-8.50746e-08
2	0	0	1	1	134.778	0.0697105	0.0693527	-0.000914337	2	0.0153339	43	11.0447	-6.34118e-08
2	0	0	1	1	135.928	0.0467216	0.0466135	-0.000921461	2	0.0153329	43	12.1942	-4.29525e-08
2	0	0	1	1	137.077	0.0237326	0.0234479	-0.000942696	2	0.0153318	43	13.3436	-2.21042e-08
2	0	0	1	1	138.227	0.000743588	0.000407666	-0.000977048	2	0.0153307	43	14.4931	-3.98309e-10
2	1	0	1	0	139.412	0.0229829	0.022859	0.000172911	2	0.0153307	43	0.5747	3.95259e-09
2	1	0	1	0	139.936	0.0335029	0.0331514	0.000251662	2	0.0153308	43	1.0993	8.34296e-09

File: 240327-CVEIS-5mM_DiCaFerrocene-1M_NaCl-2000RPM-Ag_AgCl_BLF8-Au_RDE_02_PEIS_C15.mpt
EC-Lab ASCII FILE
Nb header lines : 66

Potentio Electrochemical Impedance Spectroscopy

Run on channel : 15 (SN 19485)
User :
Electrode connection : standard
Potential control : Ewe
Ewe ctrl range : min = -1.00 V, max = 1.00 V
Ewe,I filtering : <None>
Safety Limits :
	Do not start on E overload
Channel : Floating
Acquisition started on : 03/27/2024 12:54:48.643
Loaded Setting File :  C:\Data\mathias\GoldElectrode\240322-CVEIS-PostActivation-5mM_Fe2Fe3-1M_H2SO4-2000RPM-Ag_AgCl_BLF8-Au_RDE.mps
Saved on :
	File : 240327-CVEIS-5mM_DiCaFerrocene-1M_NaCl-2000RPM-Ag_AgCl_BLF8-Au_RDE_02_PEIS_C15.mpr
	Directory : C:\Data\mathias\GoldElectrode\
	Host : 192.168.0.1
Device : VMP-300 (SN 0826)
Address : USB
EC-Lab for windows v11.52 (software)
Internet server v11.52 (firmware)
Command interpretor v11.52 (firmware)
Electrode material :
Initial state :
Electrolyte :
Comments :
Cable : special
Electrode surface area : 0.001 cm²
Characteristic mass : 0.001 g
Equivalent Weight : 0.000 g/eq.
Density : 0.000 g/cm3
Volume (V) : 0.001 cm³
Record EIS quality indicators
Cycle Definition : Charge/Discharge alternance
Mode                Single sine
E (V)               0.0000
vs.                 Eoc
tE (h:m:s)          0:00:0.0000
record              0
dI                  0.000
unit dI             mA
dt (s)              0.000
fi                  400.000
unit fi             kHz
ff                  100.000
unit ff             mHz
Nd                  10
Points              per decade
spacing             Logarithmic
Va (mV)             5.0
pw                  0.10
Na                  3
corr                0
E range min (V)     -1.000
E range max (V)     1.000
I Range             Auto
Bandwidth           8
nc cycles           2
goto Ns'            0
nr cycles           0
inc. cycle          1

freq/Hz	Re(Z)/Ohm	-Im(Z)/Ohm	|Z|/Ohm	Phase(Z)/deg	time/s	<Ewe>/V	<I>/mA	Cs/µF	Cp/µF	cycle number	I Range	|Ewe|/V	|I|/A	Ns	(Q-Qo)/mA.h	THD Ewe/%	NSD Ewe/%	NSR Ewe/%	|Ewe h2|/V	|Ewe h3|/V	|Ewe h4|/V	|Ewe h5|/V	|Ewe h6|/V	|Ewe h7|/V	THD I/%	NSD I/%	NSR I/%	|I h2|/A	|I h3|/A	|I h4|/A	|I h5|/A	|I h6|/A	|I h7|/A	Re(Y)/Ohm-1	Im(Y)/Ohm-1	|Y|/Ohm-1	Phase(Y)/deg	Re(C)/nF	Im(C)/nF	|C|/nF	Phase(C)/deg	Re(M)	Im(M)	|M|	Phase(M)/deg	Re(Permittivity)	Im(Permittivity)	|Permittivity|	Phase(Permittivity)/deg	Re(Resistivity)/Ohm.cm	Im(Resistivity)/Ohm.cm	|Resistivity|/Ohm.cm	Phase(Resistivity)/deg	Re(Conductivity)/mS/cm	Im(Conductivity)/mS/cm	|Conductivity|/mS/cm	Phase(Conductivity)/deg	Tan(Delta)	Loss Angle(Delta)/deg	dq/mA.h
399996	11.059	2.8366	11.417	-14.3861	143.658	0.033356	-0.00590641	0.14027	0.00865888	1	38	0.00495313	0.000433839	0	-2.72082e-06	-1	-1	-1	0	0	0	0	0	0	-1	-1	-1	0	0	0	0	0	0	0.0848425	0.0217619	0.087589	14.3861	8.65888	33.7581	34.8509	-75.6139	0.0000000E+000	0.0000000E+000	0.0000000E+000	75.6139	0.0000000E+000	0.0000000E+000	0.0000000E+000	-75.6139	0.0000000E+000	0.0000000E+000	0.0000000E+000	-14.3861	0.0000000E+000	0.0000000E+000	0.0000000E+000	14.3861	3.89866	75.6139	-2.72082e-06
20032.3	12.5114	3.95059	13.1203	-17.5239	158.571	0.0333552	0.00133657	2.01107	0.182332	1	38	0.00515594	0.000392973	0	2.30768e-06	1.65295	0.78072	26.479	1.58101e-05	1.76623e-05	6.78384e-05	2.195e-05	2.41935e-05	2.05016e-05	0.51314	0.293511	7.52949	6.17809e-07	4.9688e-07	1.18525e-06	8.81286e-07	8.38778e-07	3.97854e-07	0.0726804	0.0229494	0.0762176	17.5239	182.332	577.44	605.543	-72.4761	0.0000000E+000	0.0000000E+000	0.0000000E+000	72.4761	0.0000000E+000	0.0000000E+000	0.0000000E+000	-72.4761	0.0000000E+000	0.0000000E+000	0.0000000E+000	-17.5239	0.0000000E+000	0.0000000E+000	0.0000000E+000	17.5239	3.16698	72.4761	5.13111e-07
1002.75	26.05	40.4104	48.0791	-57.1927	173.58	0.0332381	6.07314e-05	3.92766	2.77464	1	39	0.00480223	9.98818e-05	0	4.48125e-06	1.40574	1.50271	24.7333	2.66247e-05	2.50213e-05	2.45363e-05	3.04847e-05	1.95272e-05	2.28436e-05	0.760845	0.491384	11.9994	3.86277e-07	3.46321e-07	1.99836e-07	2.08526e-07	2.27428e-07	3.33655e-07	0.0112693	0.0174816	0.0207991	57.1927	2774.64	1788.64	3301.19	-32.8073	0.0000000E+000	0.0000000E+000	0.0000000E+000	32.8073	0.0000000E+000	0.0000000E+000	0.0000000E+000	-32.8073	0.0000000E+000	0.0000000E+000	0.0000000E+000	-57.1927	0.0000000E+000	0.0000000E+000	0.0000000E+000	57.1927	0.644637	32.8073	-1.01752e-07
50.2089	156.911	446.913	473.659	-70.6538	188.338	0.0332358	-1.01544e-05	7.09278	6.3144	1	40	0.00493709	1.04233e-05	0	4.97891e-06	1.74314	1.06333	33.308	4.93111e-05	2.83732e-05	2.88581e-05	3.37945e-05	2.58166e-05	2.90332e-05	1.1939	0.631198	19.375	8.10118e-08	2.9358e-08	3.22618e-08	5.36633e-08	3.49097e-08	3.83373e-08	0.000699395	0.00199201	0.00211122	70.6538	6314.4	2216.98	6692.28	-19.3462	0.0000000E+000	0.0000000E+000	0.0000000E+000	19.3462	0.0000000E+000	0.0000000E+000	0.0000000E+000	-19.3462	0.0000000E+000	0.0000000E+000	0.0000000E+000	-70.6538	0.0000000E+000	0.0000000E+000	0.0000000E+000	70.6538	0.3511	19.3462	3.51007e-09
2.51368	1434.93	5474.32	5659.25	-75.312	207.375	0.0332521	-2.28377e-05	11.5659	10.8224	1	41	0.00489597	8.65126e-07	0	4.8389e-06	1.02973	0.359288	14.8593	2.33074e-05	2.05972e-05	1.66483e-05	2.43145e-05	2.01237e-05	1.24908e-05	0.90426	0.28748	18.2073	2.61354e-09	3.88058e-09	1.5053e-09	2.34534e-09	3.71243e-09	2.67308e-09	4.48036e-05	0.000170927	0.000176702	75.312	10822.4	2836.76	11188	-14.688	0.0000000E+000	0.0000000E+000	0.0000000E+000	14.688	0.0000000E+000	0.0000000E+000	0.0000000E+000	-14.688	0.0000000E+000	0.0000000E+000	0.0000000E+000	-75.312	0.0000000E+000	0.0000000E+000	0.0000000E+000	75.312	0.262121	14.688	-1.8638e-08
0.125939	22795.1	79510.1	82713.2	-74.0027	439.884	0.0332666	-2.15047e-05	15.8942	14.687	1	43	0.00490137	5.92574e-08	0	3.35161e-06	0.197519	0.13414	3.10065	2.90336e-06	5.89354e-06	3.84309e-06	2.34906e-06	2.67856e-06	3.24311e-06	0.576592	0.251884	18.9882	1.31774e-10	1.6162e-10	9.88946e-11	1.79186e-10	1.19564e-10	5.51323e-11	3.3319e-06	1.16218e-05	1.209e-05	74.0027	14687	4210.69	15278.7	-15.9973	0.0000000E+000	0.0000000E+000	0.0000000E+000	15.9973	0.0000000E+000	0.0000000E+000	0.0000000E+000	-15.9973	0.0000000E+000	0.0000000E+000	0.0000000E+000	-74.0027	0.0000000E+000	0.0000000E+000	0.0000000E+000	74.0027	0.286695	15.9973	-2.76047e-07
31751	11.9446	3.32066	12.3976	-15.5362	517.136	0.0333038	-0.000998294	1.50952	0.108296	2	38	0.00512353	0.000413267	0	-6.90879e-06	1.26818	0.576208	26.9801	4.02813e-05	1.15009e-05	2.75534e-05	1.53617e-05	1.6976e-05	3.09823e-05	0.472699	0.153637	7.21024	1.36715e-06	5.23426e-07	3.9343e-07	8.57488e-07	6.19626e-07	4.05978e-07	0.0777135	0.0216047	0.0806607	15.5362	108.296	389.546	404.319	-74.4638	0.0000000E+000	0.0000000E+000	0.0000000E+000	74.4638	0.0000000E+000	0.0000000E+000	0.0000000E+000	-74.4638	0.0000000E+000	0.0000000E+000	0.0000000E+000	-15.5362	0.0000000E+000	0.0000000E+000	0.0000000E+000	15.5362	3.59706	74.4638	-5.5777e-07
[...]
2519.19	17.5367	26.2055	31.5319	-56.2096	889.888	0.033233	-0.0024562	2.41083	1.66514	3	38	0.00523057	0.000165882	0	-3.81519e-05	1.31009	1.09534	27.016	3.20859e-05	2.9319e-05	3.56387e-05	1.73076e-05	1.79038e-05	2.64018e-05	0.919991	0.60304	18.4252	6.53067e-07	4.45083e-07	6.1403e-07	6.70154e-07	4.35811e-07	6.83654e-07	0.0176378	0.0263567	0.0317139	56.2096	1665.14	1114.31	2003.59	-33.7904	0.0000000E+000	0.0000000E+000	0.0000000E+000	33.7904	0.0000000E+000	0.0000000E+000	0.0000000E+000	-33.7904	0.0000000E+000	0.0000000E+000	0.0000000E+000	-56.2096	0.0000000E+000	0.0000000E+000	0.0000000E+000	56.2096	0.669198	33.7904	-8.46931e-07
126.171	103.393	313.066	329.697	-71.7238	905.215	0.0332707	-4.61042e-05	4.02925	3.633	3	40	0.00484563	1.46972e-05	0	-3.89707e-05	1.89381	1.0372	34.0088	1.60035e-05	2.93776e-05	4.19404e-05	3.74978e-05	3.67622e-05	3.83785e-05	0.851309	0.298548	13.8132	2.08974e-08	5.15502e-08	2.76004e-08	7.01649e-08	5.15023e-08	5.22665e-08	0.00095117	0.00288008	0.00303308	71.7238	3633	1199.83	3826	-18.2762	0.0000000E+000	0.0000000E+000	0.0000000E+000	18.2762	0.0000000E+000	0.0000000E+000	0.0000000E+000	-18.2762	0.0000000E+000	0.0000000E+000	0.0000000E+000	-71.7238	0.0000000E+000	0.0000000E+000	0.0000000E+000	71.7238	0.330258	18.2762	-1.83858e-08
6.31569	1034.65	3481.36	3631.86	-73.4482	919.894	0.0332655	-1.38146e-05	7.23853	6.65107	3	41	0.00475192	1.3084e-06	0	-3.90521e-05	1.35983	0.704422	28.2082	3.05673e-05	1.81192e-05	1.16322e-05	3.50264e-05	3.01368e-05	1.87654e-05	1.11893	0.39065	19.8407	4.87576e-09	6.70765e-09	2.34113e-09	5.91989e-09	7.05282e-09	5.39474e-09	7.84396e-05	0.000263932	0.000275341	73.4482	6651.07	1976.67	6938.59	-16.5518	0.0000000E+000	0.0000000E+000	0.0000000E+000	16.5518	0.0000000E+000	0.0000000E+000	0.0000000E+000	-16.5518	0.0000000E+000	0.0000000E+000	0.0000000E+000	-73.4482	0.0000000E+000	0.0000000E+000	0.0000000E+000	73.4482	0.297196	16.5518	-1.06941e-08
0.316193	12092.7	42512.1	44198.5	-74.1215	1016.49	0.0332979	-1.67012e-05	11.8401	10.9538	3	43	0.00475377	1.07555e-07	0	-3.95133e-05	0.314502	0.191659	5.49739	7.7615e-06	7.65801e-06	4.26321e-06	5.46271e-06	3.6816e-06	3.92263e-06	0.403352	0.181128	14.6134	1.42556e-10	2.16002e-10	1.37776e-10	2.84308e-10	7.0922e-11	8.27045e-11	6.19022e-06	2.17619e-05	2.26252e-05	74.1215	10953.8	3115.83	11388.3	-15.8785	0.0000000E+000	0.0000000E+000	0.0000000E+000	15.8785	0.0000000E+000	0.0000000E+000	0.0000000E+000	-15.8785	0.0000000E+000	0.0000000E+000	0.0000000E+000	-74.1215	0.0000000E+000	0.0000000E+000	0.0000000E+000	74.1215	0.284452	15.8785	-8.5618e-08
0.0999518	36439.9	113119	118843	-72.1443	1221.08	0.0332805	-1.54952e-05	14.0765	12.7531	3	43	0.00474972	3.99662e-08	0	-4.04342e-05	0.228022	0.102234	3.80905	4.64853e-06	7.23338e-06	2.44609e-06	2.63151e-06	2.564e-06	3.01943e-06	0.436226	0.177265	33.1562	7.90202e-11	1.03384e-10	2.84538e-11	9.70247e-11	3.5942e-11	2.49072e-11	2.58005e-06	8.00913e-06	8.41444e-06	72.1443	12753.1	4108.25	13398.5	-17.8557	0.0000000E+000	0.0000000E+000	0.0000000E+000	17.8557	0.0000000E+000	0.0000000E+000	0.0000000E+000	-17.8557	0.0000000E+000	0.0000000E+000	0.0000000E+000	-72.1443	0.0000000E+000	0.0000000E+000	0.0000000E+000	72.1443	0.322138	17.8557	-2.74639e-07