Folder: Thesis/Python/Experiments/RDE/Dicarboxylferrocene/Data (part 2)

File: 240327-CVEIS-5mM_DiCaFerrocene-1M_NaCl-453p5mVvsRef-2000RPM-Ag_AgCl_BLF8-Au_RDE_01_CV_C15.mpt
EC-Lab ASCII FILE
Nb header lines : 60

Cyclic Voltammetry

Run on channel : 15 (SN 19485)
User :
Electrode connection : standard
Potential control : Ewe
Ewe ctrl range : min = -1.00 V, max = 1.00 V
Ewe,I filtering : <None>
Safety Limits :
	Do not start on E overload
Channel : Floating
Acquisition started on : 03/27/2024 13:46:18.854
Loaded Setting File :  C:\Data\mathias\GoldElectrode\240327-CVEIS-5mM_DiCaFerrocene-1M_NaCl-2000RPM-Ag_AgCl_BLF8-Au_RDE.mps
Saved on :
	File : 240327-CVEIS-5mM_DiCaFerrocene-1M_NaCl-453p5mVvsRef-2000RPM-Ag_AgCl_BLF8-Au_RDE_01_CV_C15.mpr
	Directory : C:\Data\mathias\GoldElectrode\
	Host : 192.168.0.1
Device : VMP-300 (SN 0826)
Address : USB
EC-Lab for windows v11.52 (software)
Internet server v11.52 (firmware)
Command interpretor v11.52 (firmware)
Electrode material :
Initial state :
Electrolyte :
Comments :
Cable : special
Electrode surface area : 0.001 cm²
Characteristic mass : 0.001 g
Equivalent Weight : 0.000 g/eq.
Density : 0.000 g/cm3
Volume (V) : 0.001 cm³
Record EIS quality indicators
Cycle Definition : Charge/Discharge alternance
Ei (V)              0.000
vs.                 Eoc
dE/dt               20.000
dE/dt unit          mV/s
E1 (V)              0.700
vs.                 Ref
Step percent        50
N                   10
E range min (V)     -1.000
E range max (V)     1.000
I Range             Auto
I Range min         Unset
I Range max         Unset
I Range init        Unset
Bandwidth           8
E2 (V)              0.000
vs.                 Ref
nc cycles           1
Reverse Scan        1
Ef (V)              0.000
vs.                 Eoc

mode	ox/red	error	control changes	counter inc.	time/s	control/V	Ewe/V	<I>/mA	cycle number	(Q-Qo)/C	I Range	step time/s	P/W
2	1	0	0	0	0.000000000000000E+000	0.0769821	0.0764661	0.000145075	1	0.0000000E+000	43	0.000000000000000E+000	1.10933e-08
2	1	0	1	0	1.1383	0.0997461	0.0993958	0.000263267	1	2.38765e-07	43	1.1245	2.61676e-08
2	1	0	1	0	2.2877	0.122735	0.12238	0.000359755	1	5.89716e-07	43	2.2739	4.40268e-08
2	1	0	1	0	3.4372	0.145724	0.145393	0.000493801	1	1.07319e-06	43	3.4234	7.17951e-08
2	1	0	1	0	4.5866	0.168713	0.168236	0.000719552	1	1.76438e-06	43	4.5728	1.21054e-07
2	1	0	1	0	5.7661	0.192302	0.19215	0.00113828	1	2.84103e-06	42	5.7523	2.1872e-07
2	1	0	1	0	6.9155	0.215291	0.215034	0.00184716	1	4.51924e-06	42	6.9017	3.97201e-07
2	1	0	1	0	8.065	0.23828	0.237862	0.0030694	1	7.28601e-06	42	8.0512	7.30092e-07
2	1	0	1	0	9.2144	0.261269	0.260993	0.00508439	1	1.18874e-05	42	9.2006	1.32699e-06
2	1	0	1	0	10.3639	0.284258	0.283886	0.00815459	1	1.93956e-05	42	10.3501	2.31497e-06
2	1	0	1	0	11.5433	0.307846	0.307569	0.0121007	1	3.13539e-05	41	11.5295	3.7218e-06
2	1	0	1	0	12.6927	0.330835	0.330682	0.0161718	1	4.7811e-05	41	12.6789	5.34772e-06
2	1	0	1	0	13.8422	0.353824	0.353448	0.0203615	1	6.89646e-05	41	13.8284	7.19671e-06
2	1	0	1	0	14.9916	0.376813	0.376659	0.025938	1	9.55134e-05	41	14.9778	9.76979e-06
2	1	0	1	0	16.1411	0.399802	0.399643	0.0355303	1	0.000130477	41	16.1273	1.41994e-05
2	1	0	1	0	17.2905	0.422791	0.422458	0.0530616	1	0.000180543	41	17.2767	2.24163e-05
2	1	0	1	0	18.44	0.44578	0.445549	0.0845139	1	0.000258083	41	18.4262	3.76551e-05
2	1	0	1	0	19.6194	0.469369	0.468923	0.135767	1	0.000386133	40	19.6056	6.36644e-05
2	1	0	1	0	20.7689	0.492358	0.492276	0.201749	1	0.000579558	40	20.7551	9.93161e-05
2	1	0	1	0	21.9183	0.515347	0.515095	0.268721	1	0.000851531	40	21.9045	0.000138416
2	1	0	1	0	23.0678	0.538336	0.537996	0.316091	1	0.00119078	40	23.054	0.000170056
2	1	0	1	0	24.2172	0.561325	0.56092	0.339284	1	0.00157005	40	24.2034	0.000190311
2	1	0	1	0	25.3667	0.584314	0.584046	0.351372	1	0.00196827	40	25.3529	0.000205217
2	1	0	1	0	26.5161	0.607303	0.607146	0.353596	1	0.00237344	40	26.5023	0.000214684
2	1	0	1	0	27.6656	0.630292	0.629875	0.354335	1	0.00278127	40	27.6518	0.000223186
2	1	0	1	0	28.815	0.653281	0.652933	0.354737	1	0.00318959	40	28.8012	0.00023162
2	1	0	1	0	29.9645	0.67627	0.675958	0.35472	1	0.00359791	40	29.9507	0.000239776
2	1	0	1	0	31.1139	0.699259	0.699059	0.353328	1	0.00400525	40	31.1001	0.000246997
2	1	0	1	0	32.2388	0.678219	0.677974	0.345533	1	0.00439682	40	32.225	0.000234262
2	1	0	1	0	33.3882	0.65523	0.654921	0.342318	1	0.00479236	40	33.3744	0.000224191
2	1	0	1	0	34.5377	0.632241	0.631964	0.338859	1	0.00518404	40	34.5239	0.000214146
2	1	0	1	0	35.6871	0.609252	0.608881	0.334167	1	0.00557027	40	35.6733	0.000203468
2	1	0	1	0	36.8366	0.586263	0.58602	0.320709	1	0.00594692	40	36.8228	0.000187942
2	1	0	1	0	37.986	0.563274	0.56306	0.297528	1	0.00630377	40	37.9722	0.000167526
2	1	0	1	0	39.1355	0.540285	0.54009	0.25552	1	0.00662301	40	39.1217	0.000138004
2	1	0	1	0	40.2849	0.517296	0.517013	0.197706	1	0.00688404	40	40.2711	0.000102217
2	1	0	1	0	41.4344	0.494307	0.494113	0.137397	1	0.00707573	40	41.4206	6.78896e-05
2	1	0	1	0	42.5838	0.471318	0.471024	0.0869017	1	0.00720286	40	42.57	4.09328e-05
2	1	0	1	0	43.7333	0.448329	0.447944	0.0514076	1	0.00728055	40	43.7195	2.30277e-05
2	1	0	1	0	44.9127	0.42474	0.424433	0.0288651	1	0.00732651	41	44.8989	1.22513e-05
2	1	0	1	0	46.0622	0.401751	0.401373	0.0159547	1	0.00735163	41	46.0484	6.40378e-06
2	1	0	1	0	47.2116	0.378762	0.378361	0.00806418	1	0.00736497	41	47.1978	3.05117e-06
2	1	0	1	0	48.391	0.355174	0.354903	0.00357243	1	0.00737153	42	48.3772	1.26787e-06
2	1	0	1	0	49.5405	0.332185	0.331899	0.00134793	1	0.00737421	42	49.5267	4.47376e-07
2	1	0	1	0	50.7199	0.308596	0.308094	0.000160658	1	0.00737502	43	50.7061	4.94977e-08
2	0	0	1	0	51.8694	0.285607	0.285413	-0.000417958	1	0.00737484	43	0.8496	-1.19291e-07
2	0	0	1	0	53.0188	0.262618	0.262461	-0.000701691	1	0.00737418	43	1.999	-1.84166e-07
2	0	0	1	0	54.1683	0.239629	0.239202	-0.000848618	1	0.00737327	43	3.1485	-2.02991e-07
2	0	0	1	0	55.3177	0.21664	0.216164	-0.000922041	1	0.00737225	43	4.2979	-1.99312e-07
2	0	0	1	0	56.4672	0.193651	0.19348	-0.000955752	1	0.00737117	43	5.4474	-1.84919e-07
2	0	0	1	0	57.6166	0.170662	0.170482	-0.000978691	1	0.00737006	43	6.5968	-1.66849e-07
2	0	0	1	0	58.7661	0.147673	0.147369	-0.000978192	1	0.00736893	43	7.7463	-1.44155e-07
2	0	0	1	0	59.9155	0.124684	0.124374	-0.000985089	1	0.0073678	43	8.8957	-1.22519e-07
2	0	0	1	0	61.065	0.101695	0.101454	-0.000981792	1	0.00736667	43	10.0452	-9.96063e-08
2	0	0	1	0	62.2144	0.0787062	0.0786005	-0.000994993	1	0.00736554	43	11.1946	-7.8207e-08
2	0	0	1	0	63.3639	0.0557172	0.055463	-0.00101385	1	0.00736438	43	12.3441	-5.62314e-08
2	0	0	1	0	64.5133	0.0327283	0.0325521	-0.00104669	1	0.0073632	43	13.4935	-3.40718e-08
2	0	0	1	0	65.6928	0.00913956	0.00909648	-0.00110387	1	0.00736193	42	14.673	-1.00413e-08
2	0	0	1	1	66.8425	0.0138873	0.0136747	-7.72461e-05	1	0.00736122	43	15.8227	-1.05632e-09
2	1	0	1	1	67.992	0.0368763	0.0367575	0.000205825	1	0.00736131	43	0.8746	7.5656e-09
2	1	0	1	1	69.1414	0.0598653	0.0594815	0.000340127	1	0.00736163	43	2.024	2.02313e-08
2	1	0	1	1	70.2559	0.0821546	0.0819175	0.000428227	2	0.00736206	43	3.1385	3.50793e-08
2	1	0	1	1	71.4054	0.105145	0.104877	0.000503157	2	0.0073626	43	4.288	5.27697e-08
2	1	0	1	1	72.5548	0.128133	0.127788	0.00056016	2	0.00736321	43	5.4374	7.1582e-08
2	1	0	1	1	73.7042	0.151122	0.151093	0.00063977	2	0.0073639	43	6.5868	9.6665e-08
2	1	0	1	1	74.8537	0.174111	0.173838	0.000715472	2	0.00736467	43	7.7363	1.24376e-07
2	1	0	1	1	76.0031	0.197099	0.196893	0.000811316	2	0.00736554	43	8.8857	1.59743e-07
[...]
2	1	0	1	1	91.0359	0.497755	0.497167	0.137296	2	0.0076852	40	23.9185	6.82589e-05
2	1	0	1	1	92.1854	0.520744	0.520447	0.20156	2	0.0078797	40	25.068	0.000104901
2	1	0	1	1	93.3348	0.543733	0.543596	0.26338	2	0.00814861	40	26.2174	0.000143172
2	1	0	1	1	94.4843	0.566722	0.566359	0.302728	2	0.00847684	40	27.3669	0.000171453
2	1	0	1	1	95.6337	0.589711	0.589448	0.319631	2	0.00883638	40	28.5163	0.000188406
2	1	0	1	1	96.7832	0.6127	0.612488	0.324727	2	0.00920745	40	29.6658	0.000198891
2	1	0	1	1	97.9326	0.635689	0.635412	0.326208	2	0.0095814	40	30.8152	0.000207277
2	1	0	1	1	99.0821	0.658678	0.658369	0.326079	2	0.00995649	40	31.9647	0.00021468
2	1	0	1	1	100.231	0.681667	0.681543	0.325064	2	0.0103307	40	33.1141	0.000221545
2	1	0	1	1	101.336	0.69621	0.695868	0.318086	2	0.0106884	40	34.219	0.000221346
2	1	0	1	1	102.486	0.673221	0.6728	0.313549	2	0.0110511	40	35.3685	0.000210956
2	1	0	1	1	103.635	0.650232	0.65005	0.309759	2	0.0114088	40	36.5179	0.000201359
2	1	0	1	1	104.785	0.627243	0.626982	0.306608	2	0.011763	40	37.6674	0.000192238
2	1	0	1	1	105.934	0.604254	0.603915	0.299914	2	0.0121112	40	38.8168	0.000181123
2	1	0	1	1	107.084	0.581267	0.581094	0.285041	2	0.0124481	40	39.9662	0.000165636
2	1	0	1	1	108.233	0.558276	0.558027	0.255736	2	0.0127603	40	41.1157	0.000142708
2	1	0	1	1	109.383	0.535287	0.534943	0.20866	2	0.013028	40	42.2652	0.000111621
2	1	0	1	1	110.532	0.512298	0.512244	0.152733	2	0.0132355	40	43.4146	7.82363e-05
2	1	0	1	1	111.681	0.489311	0.489035	0.101373	2	0.0133803	40	44.564	4.95747e-05
2	1	0	1	1	112.831	0.46632	0.466195	0.0618868	2	0.0134725	40	45.7135	2.88514e-05
2	1	0	1	1	114.01	0.442732	0.442387	0.0351711	2	0.0135282	41	46.8929	1.55592e-05
2	1	0	1	1	115.16	0.419743	0.41939	0.0198246	2	0.013559	41	48.0424	8.31424e-06
2	1	0	1	1	116.309	0.396754	0.396204	0.0105604	2	0.0135759	41	49.1918	4.18408e-06
2	1	0	1	1	117.459	0.373765	0.373435	0.00508128	2	0.0135846	41	50.3413	1.89753e-06
2	1	0	1	1	118.638	0.350176	0.349882	0.00198785	2	0.0135885	42	51.5207	6.95513e-07
2	1	0	1	1	119.788	0.327187	0.326798	0.000460861	2	0.0135898	42	52.6702	1.50608e-07
2	0	0	1	1	120.967	0.303598	0.303417	-0.000310057	2	0.0135898	43	0.5247	-9.40766e-08
2	0	0	1	1	122.116	0.280611	0.279979	-0.000684006	2	0.0135893	43	1.6741	-1.91507e-07
2	0	0	1	1	123.266	0.257621	0.257369	-0.000860588	2	0.0135884	43	2.8236	-2.21489e-07
2	0	0	1	1	124.415	0.234632	0.234245	-0.000936994	2	0.0135873	43	3.9731	-2.19486e-07
2	0	0	1	1	125.565	0.211643	0.211456	-0.000967288	2	0.0135862	43	5.1225	-2.04539e-07
2	0	0	1	1	126.714	0.188655	0.188361	-0.000987736	2	0.0135851	43	6.2719	-1.86051e-07
2	0	0	1	1	127.864	0.165665	0.165446	-0.000979041	2	0.013584	43	7.4214	-1.61979e-07
2	0	0	1	1	129.013	0.142675	0.142493	-0.000975077	2	0.0135828	43	8.5709	-1.38942e-07
2	0	0	1	1	130.163	0.119687	0.119533	-0.000978123	2	0.0135817	43	9.7203	-1.16918e-07
2	0	0	1	1	131.312	0.0966989	0.0964438	-0.000968489	2	0.0135806	43	10.8697	-9.34047e-08
2	0	0	1	1	132.461	0.0737086	0.0733836	-0.000976152	2	0.0135795	43	12.0192	-7.16336e-08
2	0	0	1	1	133.611	0.0507187	0.050531	-0.000975792	2	0.0135784	43	13.1687	-4.93078e-08
2	0	0	1	1	134.76	0.0277307	0.0275092	-0.000998345	2	0.0135772	43	14.3181	-2.74637e-08
2	0	0	1	1	135.91	0.00474256	0.00453074	-0.00103849	2	0.0135761	43	15.4675	-4.70513e-09
2	1	0	1	0	137.095	0.0189848	0.0186351	6.65441e-05	2	0.0135757	43	0.1749	1.24005e-09
2	1	0	1	0	138.244	0.0419738	0.0417679	0.000272452	2	0.0135759	43	1.3244	1.13797e-08
2	1	0	1	0	139.393	0.0649628	0.0647083	0.000386378	2	0.0135763	43	2.4738	2.50018e-08
2	1	0	1	0	139.935	0.0758326	0.0754506	0.00041516	2	0.0135765	43	0.000000000000000E+000	3.13241e-08

File: 240327-CVEIS-5mM_DiCaFerrocene-1M_NaCl-453p5mVvsRef-2000RPM-Ag_AgCl_BLF8-Au_RDE_02_PEIS_C15.mpt
EC-Lab ASCII FILE
Nb header lines : 66

Potentio Electrochemical Impedance Spectroscopy

Run on channel : 15 (SN 19485)
User :
Electrode connection : standard
Potential control : Ewe
Ewe ctrl range : min = -1.00 V, max = 1.00 V
Ewe,I filtering : <None>
Safety Limits :
	Do not start on E overload
Channel : Floating
Acquisition started on : 03/27/2024 13:46:18.854
Loaded Setting File :  C:\Data\mathias\GoldElectrode\240327-CVEIS-5mM_DiCaFerrocene-1M_NaCl-2000RPM-Ag_AgCl_BLF8-Au_RDE.mps
Saved on :
	File : 240327-CVEIS-5mM_DiCaFerrocene-1M_NaCl-453p5mVvsRef-2000RPM-Ag_AgCl_BLF8-Au_RDE_02_PEIS_C15.mpr
	Directory : C:\Data\mathias\GoldElectrode\
	Host : 192.168.0.1
Device : VMP-300 (SN 0826)
Address : USB
EC-Lab for windows v11.52 (software)
Internet server v11.52 (firmware)
Command interpretor v11.52 (firmware)
Electrode material :
Initial state :
Electrolyte :
Comments :
Cable : special
Electrode surface area : 0.001 cm²
Characteristic mass : 0.001 g
Equivalent Weight : 0.000 g/eq.
Density : 0.000 g/cm3
Volume (V) : 0.001 cm³
Record EIS quality indicators
Cycle Definition : Charge/Discharge alternance
Mode                Single sine
E (V)               0.4535
vs.                 Ref
tE (h:m:s)          0:00:0.0000
record              0
dI                  0.000
unit dI             mA
dt (s)              0.000
fi                  400.000
unit fi             kHz
ff                  100.000
unit ff             mHz
Nd                  10
Points              per decade
spacing             Logarithmic
Va (mV)             5.0
pw                  0.10
Na                  3
corr                0
E range min (V)     -1.000
E range max (V)     1.000
I Range             Auto
Bandwidth           8
nc cycles           2
goto Ns'            0
nr cycles           0
inc. cycle          1

freq/Hz	Re(Z)/Ohm	-Im(Z)/Ohm	|Z|/Ohm	Phase(Z)/deg	time/s	<Ewe>/V	<I>/mA	Cs/µF	Cp/µF	cycle number	I Range	|Ewe|/V	|I|/A	Ns	(Q-Qo)/mA.h	THD Ewe/%	NSD Ewe/%	NSR Ewe/%	|Ewe h2|/V	|Ewe h3|/V	|Ewe h4|/V	|Ewe h5|/V	|Ewe h6|/V	|Ewe h7|/V	THD I/%	NSD I/%	NSR I/%	|I h2|/A	|I h3|/A	|I h4|/A	|I h5|/A	|I h6|/A	|I h7|/A	Re(Y)/Ohm-1	Im(Y)/Ohm-1	|Y|/Ohm-1	Phase(Y)/deg	Re(C)/nF	Im(C)/nF	|C|/nF	Phase(C)/deg	Re(M)	Im(M)	|M|	Phase(M)/deg	Re(Permittivity)	Im(Permittivity)	|Permittivity|	Phase(Permittivity)/deg	Re(Resistivity)/Ohm.cm	Im(Resistivity)/Ohm.cm	|Resistivity|/Ohm.cm	Phase(Resistivity)/deg	Re(Conductivity)/mS/cm	Im(Conductivity)/mS/cm	|Conductivity|/mS/cm	Phase(Conductivity)/deg	Tan(Delta)	Loss Angle(Delta)/deg	dq/mA.h
399996	11.2216	3.1427	11.6534	-15.6453	142.671	0.453375	0.0312895	0.126608	0.00920795	1	38	0.0049155	0.000421809	0	2.70126e-05	-1	-1	-1	0	0	0	0	0	0	-1	-1	-1	0	0	0	0	0	0	0.0826326	0.0231419	0.085812	15.6453	9.20794	32.8788	34.1438	-74.3547	0.0000000E+000	0.0000000E+000	0.0000000E+000	74.3547	0.0000000E+000	0.0000000E+000	0.0000000E+000	-74.3547	0.0000000E+000	0.0000000E+000	0.0000000E+000	-15.6453	0.0000000E+000	0.0000000E+000	0.0000000E+000	15.6453	3.5707	74.3547	2.70126e-05
20032.3	13.0196	3.33743	13.4405	-14.3776	157.58	0.453376	0.0306658	2.38055	0.14678	1	38	0.00517269	0.000384857	0	0.000152076	1.89162	0.722156	25.0298	4.85158e-05	3.88774e-05	4.80113e-05	1.68397e-05	2.48216e-05	4.10076e-05	0.508454	0.17553	7.49678	5.21574e-07	4.09554e-07	1.05818e-06	3.89463e-07	4.87381e-07	1.00618e-06	0.0720715	0.0184747	0.0744017	14.3776	146.78	572.602	591.116	-75.6224	0.0000000E+000	0.0000000E+000	0.0000000E+000	75.6224	0.0000000E+000	0.0000000E+000	0.0000000E+000	-75.6224	0.0000000E+000	0.0000000E+000	0.0000000E+000	-14.3776	0.0000000E+000	0.0000000E+000	0.0000000E+000	14.3776	3.90108	75.6224	9.54629e-06
1002.75	26.6333	25.4103	36.8106	-43.6538	172.454	0.453218	0.0376532	6.24621	2.97641	1	39	0.00528723	0.000143634	0	0.000278013	1.23884	1.04829	22.1198	3.21857e-05	2.14437e-05	2.54857e-05	2.60686e-05	2.11554e-05	2.35177e-05	0.807086	0.223539	8.30682	9.32826e-07	4.184e-07	3.18214e-07	1.82641e-07	2.23296e-07	2.43055e-07	0.0196553	0.0187528	0.0271661	43.6538	2976.41	3119.66	4311.76	-46.3462	0.0000000E+000	0.0000000E+000	0.0000000E+000	46.3462	0.0000000E+000	0.0000000E+000	0.0000000E+000	-46.3462	0.0000000E+000	0.0000000E+000	0.0000000E+000	-43.6538	0.0000000E+000	0.0000000E+000	0.0000000E+000	43.6538	1.04813	46.3462	1.32033e-05
50.2089	142.709	162.415	216.205	-48.6952	186.991	0.453277	0.0367292	19.5171	11.0138	1	40	0.00496367	2.29582e-05	0	0.000425529	1.78259	0.922055	32.3826	5.44371e-05	1.50849e-05	3.43198e-05	2.57551e-05	2.35629e-05	3.68716e-05	1.23684	0.245073	8.70328	2.56595e-07	5.11852e-08	4.56243e-08	6.38808e-08	4.11614e-08	4.29093e-08	0.00305296	0.00347453	0.00462525	48.6952	11013.8	9677.46	14661.4	-41.3048	0.0000000E+000	0.0000000E+000	0.0000000E+000	41.3048	0.0000000E+000	0.0000000E+000	0.0000000E+000	-41.3048	0.0000000E+000	0.0000000E+000	0.0000000E+000	-48.6952	0.0000000E+000	0.0000000E+000	0.0000000E+000	48.6952	0.87867	41.3048	1.30279e-05
2.51368	720.57	288.044	776.009	-21.7888	206.419	0.453279	0.0352226	219.812	30.2856	1	41	0.00490235	6.31738e-06	0	0.000617553	0.736616	0.380646	14.9388	1.25179e-05	1.74299e-05	1.27121e-05	1.33347e-05	1.45376e-05	8.68541e-06	2.55017	0.41521	2.43903	1.60352e-07	1.02208e-08	5.57969e-09	8.83008e-09	3.01846e-09	2.71522e-09	0.00119658	0.000478327	0.00128864	21.7888	30285.6	75762.3	81591.3	-68.2112	0.0000000E+000	0.0000000E+000	0.0000000E+000	68.2112	0.0000000E+000	0.0000000E+000	0.0000000E+000	-68.2112	0.0000000E+000	0.0000000E+000	0.0000000E+000	-21.7888	0.0000000E+000	0.0000000E+000	0.0000000E+000	21.7888	2.5016	68.2112	2.73441e-05
0.125939	1294.69	229.775	1314.92	-10.0638	434.658	0.453287	0.0274508	5499.94	167.944	1	41	0.00490726	3.73198e-06	0	0.00253186	0.227898	0.144995	3.15515	3.27606e-06	5.83098e-06	2.92367e-06	5.01061e-06	4.34767e-06	4.43633e-06	3.07848	2.98137	1.62558	1.13068e-07	8.36328e-09	1.03438e-08	8.75906e-09	7.46558e-09	8.02114e-09	0.000748801	0.000132894	0.000760502	10.0638	167944	946297	961084	-79.9362	0.0000000E+000	0.0000000E+000	0.0000000E+000	79.9362	0.0000000E+000	0.0000000E+000	0.0000000E+000	-79.9362	0.0000000E+000	0.0000000E+000	0.0000000E+000	-10.0638	0.0000000E+000	0.0000000E+000	0.0000000E+000	10.0638	5.63459	79.9362	0.000375913
31751	14.7044	3.90706	15.2146	-14.8801	511.723	0.453402	0.0226501	1.28296	0.0846038	2	38	0.00514371	0.000338076	0	0.00308027	1.41274	0.537247	26.3235	3.8568e-05	3.04761e-05	1.8949e-05	2.11966e-05	3.25971e-05	2.02198e-05	0.456696	0.330212	8.19726	9.09789e-07	3.01194e-07	6.49298e-07	4.18474e-07	6.18575e-07	2.64704e-07	0.0635221	0.0168783	0.0657262	14.8801	84.6038	318.41	329.458	-75.1199	0.0000000E+000	0.0000000E+000	0.0000000E+000	75.1199	0.0000000E+000	0.0000000E+000	0.0000000E+000	-75.1199	0.0000000E+000	0.0000000E+000	0.0000000E+000	-14.8801	0.0000000E+000	0.0000000E+000	0.0000000E+000	14.8801	3.76355	75.1199	6.78442e-06
[...]
2519.19	26.0097	19.3467	32.4161	-36.6429	880.151	0.453258	0.0223448	3.26551	1.16318	3	38	0.00548449	0.00016919	0	0.00551976	1.30612	0.768742	24.4735	1.61522e-05	4.0329e-05	2.9481e-05	3.28934e-05	1.24692e-05	2.37064e-05	0.999573	0.545816	16.7808	5.5497e-07	8.15625e-07	7.1657e-07	4.58024e-07	3.45364e-07	8.34797e-07	0.0247523	0.0184114	0.0308489	36.6429	1163.18	1563.77	1948.94	-53.3571	0.0000000E+000	0.0000000E+000	0.0000000E+000	53.3571	0.0000000E+000	0.0000000E+000	0.0000000E+000	-53.3571	0.0000000E+000	0.0000000E+000	0.0000000E+000	-36.6429	0.0000000E+000	0.0000000E+000	0.0000000E+000	36.6429	1.3444	53.3571	6.57527e-06
126.171	102.438	119.662	157.52	-49.4344	895.225	0.453264	0.0223161	10.5415	6.08339	3	39	0.00492526	3.12676e-05	0	0.00561197	1.26819	0.77279	23.0773	1.90169e-05	2.83645e-05	3.05349e-05	2.56868e-05	2.67148e-05	1.19139e-05	2.51487	1.16375	36.3008	5.35391e-07	2.10682e-07	2.62078e-07	2.7985e-07	1.81576e-07	2.50735e-07	0.00412848	0.00482264	0.0063484	49.4344	6083.38	5207.75	8008.01	-40.5656	0.0000000E+000	0.0000000E+000	0.0000000E+000	40.5656	0.0000000E+000	0.0000000E+000	0.0000000E+000	-40.5656	0.0000000E+000	0.0000000E+000	0.0000000E+000	-49.4344	0.0000000E+000	0.0000000E+000	0.0000000E+000	49.4344	0.856062	40.5656	6.76646e-06
6.31569	623.54	395.608	738.449	-32.3933	909.919	0.453285	0.0221266	63.6994	18.282	3	40	0.00490754	6.64573e-06	0	0.00570156	1.39724	0.364672	22.7697	2.50378e-05	2.99307e-05	3.16522e-05	1.48038e-05	2.93474e-05	2.40086e-05	2.50176	0.539401	21.5311	1.41148e-07	4.13882e-08	2.91583e-08	2.60541e-08	4.82052e-08	3.38403e-08	0.00114347	0.000725476	0.00135419	32.3933	18282	28815.3	34125.5	-57.6067	0.0000000E+000	0.0000000E+000	0.0000000E+000	57.6067	0.0000000E+000	0.0000000E+000	0.0000000E+000	-57.6067	0.0000000E+000	0.0000000E+000	0.0000000E+000	-32.3933	0.0000000E+000	0.0000000E+000	0.0000000E+000	32.3933	1.57616	57.6067	8.40682e-06
0.316193	1303.06	283.137	1333.46	-12.2591	1004.18	0.453247	0.0211279	1777.76	80.1499	3	41	0.00490774	3.68045e-06	0	0.00626735	0.311879	0.174346	5.12184	5.61004e-06	6.04426e-06	6.5764e-06	2.60296e-06	4.76692e-06	7.38437e-06	3.01904	0.734025	2.00618	1.10577e-07	7.88837e-09	3.08206e-09	4.97816e-09	2.7856e-09	1.3252e-09	0.000732828	0.000159234	0.000749928	12.2591	80149.9	368867	377474	-77.741	0.0000000E+000	0.0000000E+000	0.0000000E+000	77.741	0.0000000E+000	0.0000000E+000	0.0000000E+000	-77.741	0.0000000E+000	0.0000000E+000	0.0000000E+000	-12.2591	0.0000000E+000	0.0000000E+000	0.0000000E+000	12.2591	4.60221	77.741	0.000115601
0.0999518	1543.56	319.665	1576.32	-11.7003	1208.76	0.453255	0.0203964	4981.21	204.851	3	41	0.00490643	3.11259e-06	0	0.007448	0.244087	0.119169	3.06577	4.42944e-06	8.31988e-06	2.32098e-06	5.40272e-06	3.06159e-06	1.61618e-06	2.99768	1.92466	1.45098	9.25986e-08	6.34212e-09	4.39084e-09	6.41414e-09	3.90746e-09	2.75024e-09	0.000621209	0.000128649	0.00063439	11.7003	204851	989162	1.01015e+06	-78.2997	0.0000000E+000	0.0000000E+000	0.0000000E+000	78.2997	0.0000000E+000	0.0000000E+000	0.0000000E+000	-78.2997	0.0000000E+000	0.0000000E+000	0.0000000E+000	-11.7003	0.0000000E+000	0.0000000E+000	0.0000000E+000	11.7003	4.82869	78.2997	0.000350207