Folder: Thesis/Python/Experiments/IRFB/FirstCell/Data (part 2)

File: 240405-EIS-50mM_FeCl2FeCl3-1M_HCl-30mLmin-LowFreq_Fast_C15.mpt
EC-Lab ASCII FILE
Nb header lines : 66

Potentio Electrochemical Impedance Spectroscopy

Run on channel : 15 (SN 19485)
User :
Electrode connection : standard
Potential control : Ewe
Ewe ctrl range : min = -1.00 V, max = 1.00 V
Ewe,I filtering : <None>
Safety Limits :
	Do not start on E overload
Channel : Floating
Acquisition started on : 04/05/2024 10:49:41.181
Loaded Setting File :  NONE
Saved on :
	File : 240405-EIS-50mM_FeCl2FeCl3-1M_HCl-30mLmin-LowFreq_Fast_C15.mpr
	Directory : C:\Data\mathias\IRFB\
	Host : 192.168.0.1
Device : VMP-300 (SN 0826)
Address : USB
EC-Lab for windows v11.52 (software)
Internet server v11.52 (firmware)
Command interpretor v11.52 (firmware)
Electrode material :
Initial state :
Electrolyte :
Comments :
Cable : special
Electrode surface area : 0.001 cm²
Characteristic mass : 0.001 g
Equivalent Weight : 0.000 g/eq.
Density : 0.000 g/cm3
Volume (V) : 0.001 cm³
Record EIS quality indicators
Cycle Definition : Charge/Discharge alternance
Mode                Single sine
E (V)               0.0000
vs.                 Eoc
tE (h:m:s)          0:00:0.0000
record              0
dI                  0.000
unit dI             mA
dt (s)              0.000
fi                  920.000
unit fi             kHz
ff                  10.000
unit ff             mHz
Nd                  5
Points              per decade
spacing             Logarithmic
Va (mV)             5.0
pw                  0.10
Na                  2
corr                0
E range min (V)     -1.000
E range max (V)     1.000
I Range             Auto
Bandwidth           8
nc cycles           0
goto Ns'            0
nr cycles           999
inc. cycle          1

freq/Hz	Re(Z)/Ohm	-Im(Z)/Ohm	|Z|/Ohm	Phase(Z)/deg	time/s	<Ewe>/V	<I>/mA	Cs/µF	Cp/µF	cycle number	I Range	|Ewe|/V	|I|/A	Ns	(Q-Qo)/mA.h	THD Ewe/%	NSD Ewe/%	NSR Ewe/%	|Ewe h2|/V	|Ewe h3|/V	|Ewe h4|/V	|Ewe h5|/V	|Ewe h6|/V	|Ewe h7|/V	THD I/%	NSD I/%	NSR I/%	|I h2|/A	|I h3|/A	|I h4|/A	|I h5|/A	|I h6|/A	|I h7|/A	Re(Y)/Ohm-1	Im(Y)/Ohm-1	|Y|/Ohm-1	Phase(Y)/deg	Re(C)/nF	Im(C)/nF	|C|/nF	Phase(C)/deg	Re(M)	Im(M)	|M|	Phase(M)/deg	Re(Permittivity)	Im(Permittivity)	|Permittivity|	Phase(Permittivity)/deg	Re(Resistivity)/Ohm.cm	Im(Resistivity)/Ohm.cm	|Resistivity|/Ohm.cm	Phase(Resistivity)/deg	Re(Conductivity)/mS/cm	Im(Conductivity)/mS/cm	|Conductivity|/mS/cm	Phase(Conductivity)/deg	Tan(Delta)	Loss Angle(Delta)/deg	dq/mA.h
920001	-0.122448	-0.285653	0.310791	113.203	1.6255	-9.17818e-05	-0.55689	-0.60561	-0.511604	1	37	0.000904529	0.00291041	0	-0.000224908	-1	-1	-1	0	0	0	0	0	0	-1	-1	-1	0	0	0	0	0	0	-1.26769	-2.95734	3.2176	-113.203	-511.604	-219.304	556.626	156.797	0.0000000E+000	0.0000000E+000	0.0000000E+000	-156.797	0.0000000E+000	0.0000000E+000	0.0000000E+000	156.797	0.0000000E+000	0.0000000E+000	0.0000000E+000	113.203	0.0000000E+000	0.0000000E+000	0.0000000E+000	-113.203	0.428659	23.2028	-0.000224908
92961.3	0.0559976	-0.0116593	0.0571985	11.7615	5.69848	-0.000107869	-0.574512	-146.841	-6.10127	1	37	0.00521282	0.0911356	0	-0.000840212	0.342019	0.120771	6.96157	2.21627e-06	1.17983e-05	4.68693e-06	6.8815e-06	5.83894e-06	6.31445e-06	0.139865	0.0151276	0.253343	1.76724e-05	0.000125716	4.17436e-06	5.31084e-06	4.73636e-06	1.09411e-06	17.1159	-3.56371	17.483	-11.7615	-6101.27	29303.4	29931.8	-101.762	0.0000000E+000	0.0000000E+000	0.0000000E+000	101.762	0.0000000E+000	0.0000000E+000	0.0000000E+000	-101.762	0.0000000E+000	0.0000000E+000	0.0000000E+000	11.7615	0.0000000E+000	0.0000000E+000	0.0000000E+000	-11.7615	4.80284	78.2385	-0.000149167
9395.12	0.0668842	0.012513	0.0680446	-10.5966	9.91203	-0.000204949	-1.00581	1353.81	45.7816	1	37	0.00506706	0.0744667	0	-0.00169136	0.419749	0.1957	7.1077	9.14684e-06	7.36734e-06	6.63694e-06	6.36133e-06	1.38426e-05	4.97439e-06	0.197441	0.04866	0.317835	2.07362e-05	0.000143867	1.21072e-05	1.68635e-05	5.03009e-06	4.43305e-06	14.4456	2.70255	14.6962	10.5966	45781.6	244711	248957	-79.4034	0.0000000E+000	0.0000000E+000	0.0000000E+000	79.4034	0.0000000E+000	0.0000000E+000	0.0000000E+000	-79.4034	0.0000000E+000	0.0000000E+000	0.0000000E+000	-10.5966	0.0000000E+000	0.0000000E+000	0.0000000E+000	10.5966	5.34519	79.4034	-0.00037677
949.092	0.0984084	0.0323637	0.103594	-18.2045	14.7329	-0.000214363	-1.05454	5181.48	505.713	1	37	0.00539157	0.0520455	0	-0.00276636	0.369015	0.297463	6.67273	1.06356e-05	3.94608e-06	5.37194e-06	1.07635e-05	7.91633e-06	7.11069e-06	0.0542982	0.104038	0.449591	1.72865e-05	1.6664e-05	1.13775e-06	1.30257e-05	5.20766e-06	4.44145e-06	9.16995	3.01573	9.65311	18.2045	505713	1.53772e+06	1.61875e+06	-71.7955	0.0000000E+000	0.0000000E+000	0.0000000E+000	71.7955	0.0000000E+000	0.0000000E+000	0.0000000E+000	-71.7955	0.0000000E+000	0.0000000E+000	0.0000000E+000	-18.2045	0.0000000E+000	0.0000000E+000	0.0000000E+000	18.2045	3.04071	71.7955	-0.000124859
95.8897	0.167852	0.046602	0.174201	-15.5167	18.8919	-0.000184911	-1.00222	35615.8	2548.9	1	37	0.0050489	0.0289832	0	-0.00398483	0.353208	0.206777	7.2623	7.03686e-06	9.41965e-06	5.37419e-06	7.38836e-06	6.47968e-06	6.18829e-06	0.160501	0.0424445	0.820673	1.25477e-05	3.49737e-05	7.42493e-06	2.60508e-05	3.3212e-06	4.99327e-06	5.53128	1.53569	5.7405	15.5167	2.5489e+06	9.18065e+06	9.52792e+06	-74.4833	0.0000000E+000	0.0000000E+000	0.0000000E+000	74.4833	0.0000000E+000	0.0000000E+000	0.0000000E+000	-74.4833	0.0000000E+000	0.0000000E+000	0.0000000E+000	-15.5167	0.0000000E+000	0.0000000E+000	0.0000000E+000	15.5167	3.60181	74.4833	-0.000217147
9.69291	0.212414	0.0133627	0.212834	-3.59966	22.6241	-0.000183643	-0.983069	1.22877e+06	4843.71	1	37	0.00493661	0.0231946	0	-0.00491681	0.410893	0.21296	7.46739	8.48486e-06	5.74103e-06	8.31979e-06	6.99304e-06	9.97622e-06	8.18318e-06	0.305943	0.0987682	0.968887	1.08013e-05	1.73689e-05	6.44824e-06	6.36357e-05	1.4421e-05	1.27063e-05	4.68923	0.294993	4.6985	3.59966	4.84372e+06	7.69959e+07	7.71481e+07	-86.4003	0.0000000E+000	0.0000000E+000	0.0000000E+000	86.4003	0.0000000E+000	0.0000000E+000	0.0000000E+000	-86.4003	0.0000000E+000	0.0000000E+000	0.0000000E+000	-3.59966	0.0000000E+000	0.0000000E+000	0.0000000E+000	3.59966	15.8961	86.4003	-0.000199743
0.979744	0.217845	0.00763476	0.217978	-2.00721	36.2432	-0.000190376	-0.91432	2.12771e+07	26102.2	1	38	0.00493384	0.0226346	0	-0.00869846	0.113899	0.0717037	1.56013	2.33913e-06	2.55136e-06	2.00253e-06	3.11391e-06	1.84629e-06	1.30473e-06	0.105354	0.0625986	0.579949	2.19939e-06	1.748e-05	3.46638e-06	1.5291e-05	1.94487e-06	2.72153e-06	4.5848	0.160683	4.58761	2.00721	2.61022e+07	7.4478e+08	7.45237e+08	-87.9928	0.0000000E+000	0.0000000E+000	0.0000000E+000	87.9928	0.0000000E+000	0.0000000E+000	0.0000000E+000	-87.9928	0.0000000E+000	0.0000000E+000	0.0000000E+000	-2.00721	0.0000000E+000	0.0000000E+000	0.0000000E+000	2.00721	28.5333	87.9928	-0.0011528
[...]
1501.44	0.0891865	0.0280085	0.0934811	-17.4346	1156.42	-0.000207708	-1.17633	3784.62	339.746	2	37	0.00539831	0.0577476	0	-0.00332497	0.470423	0.140599	7.00379	1.29096e-05	1.53029e-05	4.5716e-06	8.74878e-06	8.1285e-06	8.01052e-06	0.0762132	0.0219932	0.402176	1.37367e-05	4.02845e-05	3.43331e-06	8.24951e-06	3.52497e-06	5.25443e-06	10.2059	3.20511	10.6974	17.4346	339746	1.08184e+06	1.13394e+06	-72.5654	0.0000000E+000	0.0000000E+000	0.0000000E+000	72.5654	0.0000000E+000	0.0000000E+000	0.0000000E+000	-72.5654	0.0000000E+000	0.0000000E+000	0.0000000E+000	-17.4346	0.0000000E+000	0.0000000E+000	0.0000000E+000	17.4346	3.18426	72.5654	-0.000381727
151.699	0.149728	0.0475582	0.1571	-17.6214	1160.8	-0.000175665	-1.02902	22060.3	2021.68	2	37	0.0051338	0.0326786	0	-0.00492024	0.292456	0.209183	7.32932	4.37791e-06	1.82241e-06	5.43426e-06	5.87857e-06	6.5192e-06	7.58838e-06	0.13805	0.13617	0.659059	4.13107e-06	3.46553e-05	1.25116e-05	2.49258e-05	1.91459e-06	1.62266e-06	6.0667	1.92697	6.36538	17.6214	2.02168e+06	6.36488e+06	6.67824e+06	-72.3786	0.0000000E+000	0.0000000E+000	0.0000000E+000	72.3786	0.0000000E+000	0.0000000E+000	0.0000000E+000	-72.3786	0.0000000E+000	0.0000000E+000	0.0000000E+000	-17.6214	0.0000000E+000	0.0000000E+000	0.0000000E+000	17.6214	3.14832	72.3786	-0.000254137
15.3287	0.20948	0.018384	0.210286	-5.01543	1164.53	-0.00017984	-0.979793	564774	4316.55	2	37	0.00494713	0.0235258	0	-0.00595645	0.465846	0.107245	7.47635	6.43508e-06	8.74365e-06	9.29175e-06	1.21272e-05	4.58159e-06	1.21763e-05	0.160721	0.0552364	1.00342	9.67483e-06	2.85465e-05	6.33058e-06	1.74175e-05	1.03428e-05	4.1799e-06	4.73723	0.41574	4.75544	5.01543	4.31655e+06	4.91858e+07	4.93749e+07	-84.9846	0.0000000E+000	0.0000000E+000	0.0000000E+000	84.9846	0.0000000E+000	0.0000000E+000	0.0000000E+000	-84.9846	0.0000000E+000	0.0000000E+000	0.0000000E+000	-5.01543	0.0000000E+000	0.0000000E+000	0.0000000E+000	5.01543	11.3947	84.9846	-0.000280098
1.54902	0.216773	0.00668056	0.216876	-1.7652	1172.39	-0.000185197	-0.932459	1.53798e+07	14593.3	2	37	0.00493419	0.0227512	0	-0.00812291	0.167656	0.0995812	1.99311	4.6692e-06	5.05038e-06	2.42785e-06	1.80739e-06	2.27358e-06	1.75465e-06	0.141233	0.077463	0.656451	1.03947e-05	2.61463e-05	8.76454e-06	1.15615e-05	3.1996e-06	3.78833e-06	4.60874	0.142033	4.61093	1.7652	1.45933e+07	4.73528e+08	4.73753e+08	-88.2348	0.0000000E+000	0.0000000E+000	0.0000000E+000	88.2348	0.0000000E+000	0.0000000E+000	0.0000000E+000	-88.2348	0.0000000E+000	0.0000000E+000	0.0000000E+000	-1.7652	0.0000000E+000	0.0000000E+000	0.0000000E+000	1.7652	32.4483	88.2348	-0.00153509
0.15652	0.236668	0.0116515	0.236954	-2.81849	1239.65	-0.000172554	-0.96297	8.72706e+07	211012	2	38	0.0049304	0.0208074	0	-0.0231563	0.087307	0.0649503	0.614958	2.10811e-06	2.57626e-06	4.88334e-07	1.69279e-06	1.15518e-06	1.38137e-06	0.118745	0.107378	0.508687	4.98646e-06	1.59894e-05	5.04951e-06	1.60876e-05	3.88265e-06	2.62813e-06	4.21512	0.207518	4.22023	2.81849	2.11012e+08	4.28609e+09	4.29128e+09	-87.1815	0.0000000E+000	0.0000000E+000	0.0000000E+000	87.1815	0.0000000E+000	0.0000000E+000	0.0000000E+000	-87.1815	0.0000000E+000	0.0000000E+000	0.0000000E+000	-2.81849	0.0000000E+000	0.0000000E+000	0.0000000E+000	2.81849	20.3121	87.1815	-0.00267259

File: 240405-EIS-50mM_FeCl2FeCl3-1M_HCl-30mLmin-LowFreq_Full_C15.mpt
EC-Lab ASCII FILE
Nb header lines : 66

Potentio Electrochemical Impedance Spectroscopy

Run on channel : 15 (SN 19485)
User :
Electrode connection : standard
Potential control : Ewe
Ewe ctrl range : min = -1.00 V, max = 1.00 V
Ewe,I filtering : <None>
Safety Limits :
	Do not start on E overload
Channel : Floating
Acquisition started on : 04/05/2024 11:11:59.743
Loaded Setting File :  NONE
Saved on :
	File : 240405-EIS-50mM_FeCl2FeCl3-1M_HCl-30mLmin-LowFreq_Full_C15.mpr
	Directory : C:\Data\mathias\IRFB\
	Host : 192.168.0.1
Device : VMP-300 (SN 0826)
Address : USB
EC-Lab for windows v11.52 (software)
Internet server v11.52 (firmware)
Command interpretor v11.52 (firmware)
Electrode material :
Initial state :
Electrolyte :
Comments :
Cable : special
Electrode surface area : 0.001 cm²
Characteristic mass : 0.001 g
Equivalent Weight : 0.000 g/eq.
Density : 0.000 g/cm3
Volume (V) : 0.001 cm³
Record EIS quality indicators
Cycle Definition : Charge/Discharge alternance
Mode                Single sine
E (V)               0.0000
vs.                 Eoc
tE (h:m:s)          0:00:0.0000
record              0
dI                  0.000
unit dI             mA
dt (s)              0.000
fi                  920.000
unit fi             kHz
ff                  25.000
unit ff             mHz
Nd                  10
Points              per decade
spacing             Logarithmic
Va (mV)             5.0
pw                  0.10
Na                  3
corr                0
E range min (V)     -1.000
E range max (V)     1.000
I Range             Auto
Bandwidth           8
nc cycles           2
goto Ns'            0
nr cycles           999
inc. cycle          1

freq/Hz	Re(Z)/Ohm	-Im(Z)/Ohm	|Z|/Ohm	Phase(Z)/deg	time/s	<Ewe>/V	<I>/mA	Cs/µF	Cp/µF	cycle number	I Range	|Ewe|/V	|I|/A	Ns	(Q-Qo)/mA.h	THD Ewe/%	NSD Ewe/%	NSR Ewe/%	|Ewe h2|/V	|Ewe h3|/V	|Ewe h4|/V	|Ewe h5|/V	|Ewe h6|/V	|Ewe h7|/V	THD I/%	NSD I/%	NSR I/%	|I h2|/A	|I h3|/A	|I h4|/A	|I h5|/A	|I h6|/A	|I h7|/A	Re(Y)/Ohm-1	Im(Y)/Ohm-1	|Y|/Ohm-1	Phase(Y)/deg	Re(C)/nF	Im(C)/nF	|C|/nF	Phase(C)/deg	Re(M)	Im(M)	|M|	Phase(M)/deg	Re(Permittivity)	Im(Permittivity)	|Permittivity|	Phase(Permittivity)/deg	Re(Resistivity)/Ohm.cm	Im(Resistivity)/Ohm.cm	|Resistivity|/Ohm.cm	Phase(Resistivity)/deg	Re(Conductivity)/mS/cm	Im(Conductivity)/mS/cm	|Conductivity|/mS/cm	Phase(Conductivity)/deg	Tan(Delta)	Loss Angle(Delta)/deg	dq/mA.h
920001	-0.120769	-0.286523	0.310935	112.855	1.97648	-0.000140937	-0.826958	-0.603772	-0.512687	1	37	0.00090544	0.00291199	0	-0.000421674	-1	-1	-1	0	0	0	0	0	0	-1	-1	-1	0	0	0	0	0	0	-1.24916	-2.96361	3.21611	-112.855	-512.687	-216.097	556.369	157.145	0.0000000E+000	0.0000000E+000	0.0000000E+000	-157.145	0.0000000E+000	0.0000000E+000	0.0000000E+000	157.145	0.0000000E+000	0.0000000E+000	0.0000000E+000	112.855	0.0000000E+000	0.0000000E+000	0.0000000E+000	-112.855	0.4215	22.8554	-0.000421674
9395.12	0.0664972	0.0125566	0.0676723	-10.6932	24.801	-0.000256472	-1.24318	1349.1	46.4481	1	37	0.00526831	0.0778503	0	-0.00567857	0.387236	0.135445	6.90263	7.77251e-06	5.92376e-06	4.70854e-06	4.65275e-06	1.47631e-05	6.05899e-06	0.199773	0.0501971	0.300193	1.92219e-05	0.000152926	9.26343e-06	1.5927e-05	5.21003e-06	2.87612e-06	14.5205	2.74189	14.7771	10.6932	46448.1	245979	250326	-79.3068	0.0000000E+000	0.0000000E+000	0.0000000E+000	79.3068	0.0000000E+000	0.0000000E+000	0.0000000E+000	-79.3068	0.0000000E+000	0.0000000E+000	0.0000000E+000	-10.6932	0.0000000E+000	0.0000000E+000	0.0000000E+000	10.6932	5.29579	79.3068	-0.000476097
95.8897	0.167331	0.0465641	0.173689	-15.5506	49.6119	-0.00025267	-1.3499	35644.8	2561.85	1	37	0.00504802	0.0290635	0	-0.0147717	0.365769	0.136754	7.33007	5.68388e-06	5.63284e-06	6.8673e-06	8.01952e-06	6.56566e-06	7.27302e-06	0.155071	0.026819	0.806527	4.96089e-06	3.34837e-05	5.19737e-06	2.82431e-05	4.89056e-06	4.25968e-06	5.54666	1.5435	5.75741	15.5506	2.56185e+06	9.20618e+06	9.55598e+06	-74.4494	0.0000000E+000	0.0000000E+000	0.0000000E+000	74.4494	0.0000000E+000	0.0000000E+000	0.0000000E+000	-74.4494	0.0000000E+000	0.0000000E+000	0.0000000E+000	-15.5506	0.0000000E+000	0.0000000E+000	0.0000000E+000	15.5506	3.59356	74.4494	-0.000378952
0.978641	0.217706	0.00766785	0.217841	-2.01719	93.9147	-0.000249402	-1.21568	2.12091e+07	26277.9	1	38	0.00493507	0.0226545	0	-0.0310439	0.120055	0.0646396	1.56123	2.17654e-06	3.07846e-06	1.23128e-06	2.59463e-06	2.31754e-06	1.46473e-06	0.117006	0.0468939	0.584591	5.18832e-06	1.81243e-05	5.27092e-06	1.73365e-05	3.26346e-06	1.48058e-06	4.58766	0.161582	4.5905	2.01719	2.62779e+07	7.46084e+08	7.46547e+08	-87.9828	0.0000000E+000	0.0000000E+000	0.0000000E+000	87.9828	0.0000000E+000	0.0000000E+000	0.0000000E+000	-87.9828	0.0000000E+000	0.0000000E+000	0.0000000E+000	-2.01719	0.0000000E+000	0.0000000E+000	0.0000000E+000	2.01719	28.3921	87.9828	-0.0041904
462524	0.0225244	-0.0791589	0.0823012	74.1165	1265.64	-0.000155104	-1.05986	-4.34696	-4.02137	2	37	0.000901932	0.0109589	0	-0.447098	-1	-1	-1	0	0	0	0	0	0	-1	-1	-1	0	0	0	0	0	0	3.32538	-11.6866	12.1505	-74.1165	-4021.37	1144.27	4181	-164.116	0.0000000E+000	0.0000000E+000	0.0000000E+000	164.116	0.0000000E+000	0.0000000E+000	0.0000000E+000	-164.116	0.0000000E+000	0.0000000E+000	0.0000000E+000	74.1165	0.0000000E+000	0.0000000E+000	0.0000000E+000	-74.1165	0.284547	15.8835	-0.000341806
4721.51	0.0730679	0.0178361	0.0752133	-13.7178	1288.82	-0.000262754	-1.18267	1889.9	106.28	2	37	0.00520077	0.0691469	0	-0.453421	0.331225	0.196609	7.14114	5.31832e-06	1.02455e-05	5.8544e-06	4.21072e-06	5.22337e-06	6.44716e-06	0.155335	0.0962712	0.347733	1.67768e-05	0.000104252	8.38073e-06	1.45918e-05	5.53838e-06	6.11923e-06	12.9163	3.1529	13.2955	13.7178	106280	435388	448172	-76.2822	0.0000000E+000	0.0000000E+000	0.0000000E+000	76.2822	0.0000000E+000	0.0000000E+000	0.0000000E+000	-76.2822	0.0000000E+000	0.0000000E+000	0.0000000E+000	-13.7178	0.0000000E+000	0.0000000E+000	0.0000000E+000	13.7178	4.09662	76.2822	-0.000496943
48.1956	0.190473	0.0377039	0.194168	-11.1969	1313.16	-0.00024156	-1.22289	87584.5	3302.49	2	37	0.00497196	0.0256064	0	-0.461861	0.430167	0.16276	7.38686	9.12919e-06	6.41861e-06	7.72584e-06	7.12948e-06	1.16393e-05	6.25705e-06	0.176553	0.149178	0.874214	9.47177e-06	2.9437e-05	8.53326e-06	2.97901e-05	6.97119e-06	5.87254e-06	5.05214	1.00007	5.15017	11.1969	3.30249e+06	1.66835e+07	1.70073e+07	-78.8031	0.0000000E+000	0.0000000E+000	0.0000000E+000	78.8031	0.0000000E+000	0.0000000E+000	0.0000000E+000	-78.8031	0.0000000E+000	0.0000000E+000	0.0000000E+000	-11.1969	0.0000000E+000	0.0000000E+000	0.0000000E+000	11.1969	5.05181	78.8031	-0.000366489
0.492188	0.221397	0.013256	0.221793	-3.42645	1385.22	-0.000240528	-1.20695	2.43937e+07	87137.1	2	38	0.00493125	0.0222335	0	-0.487767	0.133313	0.0970364	1.08513	2.55524e-06	4.23405e-06	2.29542e-06	2.87688e-06	1.39443e-06	7.60814e-07	0.157528	0.139634	0.594254	9.4633e-06	1.92502e-05	1.76412e-05	1.80393e-05	5.73134e-06	5.59643e-06	4.50064	0.269473	4.5087	3.42645	8.71371e+07	1.45534e+09	1.45794e+09	-86.5735	0.0000000E+000	0.0000000E+000	0.0000000E+000	86.5735	0.0000000E+000	0.0000000E+000	0.0000000E+000	-86.5735	0.0000000E+000	0.0000000E+000	0.0000000E+000	-3.42645	0.0000000E+000	0.0000000E+000	0.0000000E+000	3.42645	16.7017	86.5735	-0.0056807
[...]
116909	0.0545617	-0.0162513	0.0569306	16.5863	3792.95	-0.0001612	-0.483279	-83.7688	-6.82606	4	37	0.00502187	0.0882105	0	-0.00251362	-1	-1	-1	0	0	0	0	0	0	-1	-1	-1	0	0	0	0	0	0	16.8344	-5.01416	17.5653	-16.5863	-6826.06	22917.6	23912.6	-106.586	0.0000000E+000	0.0000000E+000	0.0000000E+000	106.586	0.0000000E+000	0.0000000E+000	0.0000000E+000	-106.586	0.0000000E+000	0.0000000E+000	0.0000000E+000	16.5863	0.0000000E+000	0.0000000E+000	0.0000000E+000	-16.5863	3.35737	73.4137	-0.000128447
1193.85	0.0928899	0.0299646	0.0976033	-17.8788	3817.35	-0.000301173	-1.25805	4448.99	419.324	4	37	0.00518716	0.0531453	0	-0.00880155	0.396028	0.210917	7.14244	7.44682e-06	7.34278e-06	9.41334e-06	7.66306e-06	4.86231e-06	9.10682e-06	0.0531982	0.0842236	0.445184	1.32334e-05	2.25456e-05	4.0453e-06	7.99053e-06	4.6697e-06	1.31724e-06	9.75078	3.14543	10.2456	17.8788	419324	1.2999e+06	1.36586e+06	-72.1212	0.0000000E+000	0.0000000E+000	0.0000000E+000	72.1212	0.0000000E+000	0.0000000E+000	0.0000000E+000	-72.1212	0.0000000E+000	0.0000000E+000	0.0000000E+000	-17.8788	0.0000000E+000	0.0000000E+000	0.0000000E+000	17.8788	3.09999	72.1212	-0.000358279
12.188	0.211656	0.0160128	0.21226	-4.32647	3840.32	-0.000262344	-1.27715	815497	4641.07	4	37	0.00509679	0.024012	0	-0.016968	0.291862	0.14629	7.30367	6.77856e-06	5.25383e-06	4.35622e-06	5.83551e-06	6.34276e-06	6.09111e-06	0.306479	0.0292418	0.936901	5.4845e-06	2.61909e-05	6.60576e-05	1.50396e-05	3.33045e-06	6.91318e-06	4.69777	0.35541	4.7112	4.32647	4.64107e+06	6.13453e+07	6.15206e+07	-85.6735	0.0000000E+000	0.0000000E+000	0.0000000E+000	85.6735	0.0000000E+000	0.0000000E+000	0.0000000E+000	-85.6735	0.0000000E+000	0.0000000E+000	0.0000000E+000	-4.32647	0.0000000E+000	0.0000000E+000	0.0000000E+000	4.32647	13.2179	85.6735	-0.000449992
0.124396	0.239764	0.0111184	0.240022	-2.65503	4086.7	-0.000247248	-1.2186	1.15073e+08	246919	4	38	0.00508338	0.0211788	0	-0.108378	0.107425	0.074694	0.539693	1.52609e-06	3.87715e-06	1.40654e-06	1.85042e-06	1.21513e-06	1.34429e-06	0.134919	0.134148	0.458041	8.82685e-06	1.94527e-05	4.41454e-06	1.53826e-05	3.36183e-06	2.4927e-06	4.16181	0.192992	4.16629	2.65503	2.46919e+08	5.32473e+09	5.33045e+09	-87.345	0.0000000E+000	0.0000000E+000	0.0000000E+000	87.345	0.0000000E+000	0.0000000E+000	0.0000000E+000	-87.345	0.0000000E+000	0.0000000E+000	0.0000000E+000	-2.65503	0.0000000E+000	0.0000000E+000	0.0000000E+000	2.65503	21.5647	87.345	-0.0195538
0.0395203	0.245705	0.00624801	0.245784	-1.45666	4602.48	-0.000265258	-1.28013	6.44553e+08	416519	4	38	0.00508562	0.0206914	0	-0.268786	0.0967536	0.111216	0.323468	1.85142e-06	3.12465e-06	1.08654e-06	2.54166e-06	1.1017e-06	1.0042e-06	0.169088	0.210034	0.288622	2.22486e-05	1.34263e-05	8.27667e-06	1.87198e-05	6.32977e-06	5.0444e-06	4.0673	0.103427	4.06861	1.45666	4.16519e+08	1.63797e+10	1.6385e+10	-88.5433	0.0000000E+000	0.0000000E+000	0.0000000E+000	88.5433	0.0000000E+000	0.0000000E+000	0.0000000E+000	-88.5433	0.0000000E+000	0.0000000E+000	0.0000000E+000	-1.45666	0.0000000E+000	0.0000000E+000	0.0000000E+000	1.45666	39.3253	88.5433	-0.0638098