Folder: Thesis/Python/Experiments/IRFB/FirstCell/Data

File: 240405-EIS-50mM_FeCl2FeCl3-1M_HCl-30mLmin-LowFreq_6ppd_C15.mpt
EC-Lab ASCII FILE
Nb header lines : 66

Potentio Electrochemical Impedance Spectroscopy

Run on channel : 15 (SN 19485)
User :
Electrode connection : standard
Potential control : Ewe
Ewe ctrl range : min = -1.00 V, max = 1.00 V
Ewe,I filtering : <None>
Safety Limits :
	Do not start on E overload
Channel : Floating
Acquisition started on : 04/05/2024 12:36:46.312
Loaded Setting File :  NONE
Saved on :
	File : 240405-EIS-50mM_FeCl2FeCl3-1M_HCl-30mLmin-LowFreq_6ppd_C15.mpr
	Directory : C:\Data\mathias\IRFB\
	Host : 192.168.0.1
Device : VMP-300 (SN 0826)
Address : USB
EC-Lab for windows v11.52 (software)
Internet server v11.52 (firmware)
Command interpretor v11.52 (firmware)
Electrode material :
Initial state :
Electrolyte :
Comments :
Cable : special
Electrode surface area : 0.001 cm²
Characteristic mass : 0.001 g
Equivalent Weight : 0.000 g/eq.
Density : 0.000 g/cm3
Volume (V) : 0.001 cm³
Record EIS quality indicators
Cycle Definition : Charge/Discharge alternance
Mode                Single sine
E (V)               0.0000
vs.                 Eoc
tE (h:m:s)          0:00:0.0000
record              0
dI                  0.000
unit dI             mA
dt (s)              0.000
fi                  920.000
unit fi             kHz
ff                  25.000
unit ff             mHz
Nd                  6
Points              per decade
spacing             Logarithmic
Va (mV)             5.0
pw                  0.10
Na                  3
corr                0
E range min (V)     -1.000
E range max (V)     1.000
I Range             Auto
Bandwidth           8
nc cycles           2
goto Ns'            0
nr cycles           0
inc. cycle          0

freq/Hz	Re(Z)/Ohm	-Im(Z)/Ohm	|Z|/Ohm	Phase(Z)/deg	time/s	<Ewe>/V	<I>/mA	Cs/µF	Cp/µF	cycle number	I Range	|Ewe|/V	|I|/A	Ns	(Q-Qo)/mA.h	THD Ewe/%	NSD Ewe/%	NSR Ewe/%	|Ewe h2|/V	|Ewe h3|/V	|Ewe h4|/V	|Ewe h5|/V	|Ewe h6|/V	|Ewe h7|/V	THD I/%	NSD I/%	NSR I/%	|I h2|/A	|I h3|/A	|I h4|/A	|I h5|/A	|I h6|/A	|I h7|/A	Re(Y)/Ohm-1	Im(Y)/Ohm-1	|Y|/Ohm-1	Phase(Y)/deg	Re(C)/nF	Im(C)/nF	|C|/nF	Phase(C)/deg	Re(M)	Im(M)	|M|	Phase(M)/deg	Re(Permittivity)	Im(Permittivity)	|Permittivity|	Phase(Permittivity)/deg	Re(Resistivity)/Ohm.cm	Im(Resistivity)/Ohm.cm	|Resistivity|/Ohm.cm	Phase(Resistivity)/deg	Re(Conductivity)/mS/cm	Im(Conductivity)/mS/cm	|Conductivity|/mS/cm	Phase(Conductivity)/deg	Tan(Delta)	Loss Angle(Delta)/deg	dq/mA.h
920001	-0.121266	-0.286685	0.311278	112.928	1.82249	-0.000105091	-0.619051	-0.60343	-0.511847	1	37	0.000907285	0.00291471	0	-0.000284302	-1	-1	-1	0	0	0	0	0	0	-1	-1	-1	0	0	0	0	0	0	-1.25154	-2.95875	3.21256	-112.928	-511.847	-216.509	555.755	157.072	0.0000000E+000	0.0000000E+000	0.0000000E+000	-157.072	0.0000000E+000	0.0000000E+000	0.0000000E+000	157.072	0.0000000E+000	0.0000000E+000	0.0000000E+000	112.928	0.0000000E+000	0.0000000E+000	0.0000000E+000	-112.928	0.422995	22.9281	-0.000284302
28225.2	0.0592998	0.00333925	0.0593937	-3.223	12.1545	-0.000113181	-0.610599	1688.63	5.33765	1	37	0.00538844	0.090724	0	-0.00214327	0.406545	0.313378	6.9757	8.36465e-06	1.44094e-05	5.97737e-06	6.29176e-06	6.90558e-06	4.71961e-06	0.211572	0.0288696	0.255983	3.56041e-05	0.00018837	3.49299e-06	9.12505e-06	2.21703e-06	1.78575e-06	16.8102	0.946602	16.8368	3.223	5337.66	94788.3	94938.5	-86.777	0.0000000E+000	0.0000000E+000	0.0000000E+000	86.777	0.0000000E+000	0.0000000E+000	0.0000000E+000	-86.777	0.0000000E+000	0.0000000E+000	0.0000000E+000	-3.223	0.0000000E+000	0.0000000E+000	0.0000000E+000	3.223	17.7584	86.777	-0.000304022
865.832	0.0994791	0.0331087	0.104844	-18.4085	23.5386	-0.000228977	-1.10242	5551.93	553.658	1	37	0.00532114	0.0507529	0	-0.00503939	0.308003	0.196852	6.90269	4.96328e-06	6.94043e-06	9.96036e-06	6.67495e-06	5.04734e-06	3.1938e-06	0.050052	0.0332608	0.45816	1.58525e-05	1.5512e-05	3.75069e-06	9.26595e-06	5.44345e-06	2.90534e-06	9.04991	3.012	9.53798	18.4085	553658	1.66353e+06	1.75325e+06	-71.5915	0.0000000E+000	0.0000000E+000	0.0000000E+000	71.5915	0.0000000E+000	0.0000000E+000	0.0000000E+000	-71.5915	0.0000000E+000	0.0000000E+000	0.0000000E+000	-18.4085	0.0000000E+000	0.0000000E+000	0.0000000E+000	18.4085	3.00462	71.5915	-0.000368553
26.5551	0.204229	0.0276855	0.206097	-7.72002	33.9481	-0.000209815	-1.06488	216481	3906.45	1	37	0.00495511	0.0240426	0	-0.00812038	0.376905	0.264455	7.53338	9.56607e-06	6.9318e-06	4.89253e-06	8.23947e-06	6.61032e-06	4.89892e-06	0.231747	0.0383103	0.970597	4.50935e-05	2.21957e-05	8.00105e-06	1.81133e-05	9.89188e-06	4.14968e-06	4.80811	0.651793	4.85209	7.72002	3.90645e+06	2.88169e+07	2.90805e+07	-82.28	0.0000000E+000	0.0000000E+000	0.0000000E+000	82.28	0.0000000E+000	0.0000000E+000	0.0000000E+000	-82.28	0.0000000E+000	0.0000000E+000	0.0000000E+000	-7.72002	0.0000000E+000	0.0000000E+000	0.0000000E+000	7.72002	7.37675	82.28	-0.000362719
0.814483	0.219443	0.00859001	0.219611	-2.24168	63.1299	-0.000191659	-0.990615	2.27481e+07	34803.5	1	38	0.00493514	0.0224722	0	-0.015493	0.108467	0.0678791	1.38821	2.92003e-06	3.03986e-06	1.1675e-06	1.06644e-06	1.84027e-06	1.52586e-06	0.127441	0.0582225	0.595178	1.2006e-05	1.72006e-05	5.75371e-06	1.64682e-05	4.72762e-06	5.17089e-06	4.55002	0.178109	4.5535	2.24168	3.48035e+07	8.89102e+08	8.89782e+08	-87.7583	0.0000000E+000	0.0000000E+000	0.0000000E+000	87.7583	0.0000000E+000	0.0000000E+000	0.0000000E+000	-87.7583	0.0000000E+000	0.0000000E+000	0.0000000E+000	-2.24168	0.0000000E+000	0.0000000E+000	0.0000000E+000	2.24168	25.5463	87.7583	-0.000851476
0.0250094	0.248364	0.00148193	0.248369	-0.341867	803.493	-0.000196735	-1.00585	4.29425e+09	152880	1	38	0.00492804	0.0198416	0	-0.252413	0.101889	0.11088	0.288471	2.16754e-06	3.52729e-06	1.19108e-06	2.11012e-06	8.58259e-07	6.1518e-07	0.216336	0.207955	0.287702	2.0591e-05	2.45002e-05	1.99136e-05	8.40266e-06	7.01884e-06	6.19922e-06	4.0262	0.0240235	4.02627	0.341867	1.5288e+08	2.56219e+10	2.56224e+10	-89.6581	0.0000000E+000	0.0000000E+000	0.0000000E+000	89.6581	0.0000000E+000	0.0000000E+000	0.0000000E+000	-89.6581	0.0000000E+000	0.0000000E+000	0.0000000E+000	-0.341867	0.0000000E+000	0.0000000E+000	0.0000000E+000	0.341867	167.595	89.6581	-0.075822
41586.2	0.0577119	-0.000709905	0.0577163	0.704751	814.277	-9.62368e-05	-0.646761	-5391.01	-0.815594	2	37	0.00538939	0.0933774	0	-0.254707	0.395464	0.185958	6.8205	1.14703e-05	9.86608e-06	6.68173e-06	6.36023e-06	5.78721e-06	8.55885e-06	0.19822	0.0485727	0.254165	3.51825e-06	0.000184551	2.79063e-06	1.15718e-05	3.4575e-06	4.9622e-06	17.3248	-0.21311	17.3261	-0.704751	-815.594	66303.9	66309	-90.7048	0.0000000E+000	0.0000000E+000	0.0000000E+000	90.7048	0.0000000E+000	0.0000000E+000	0.0000000E+000	-90.7048	0.0000000E+000	0.0000000E+000	0.0000000E+000	0.704751	0.0000000E+000	0.0000000E+000	0.0000000E+000	-0.704751	81.2953	89.2952	-0.000127029
[...]
1878.19	0.0850892	0.0257062	0.0888875	-16.81	1627.42	-0.000249501	-1.03339	3296.41	275.7	3	37	0.00538942	0.060632	0	-0.465764	0.322884	0.172062	6.88792	7.52495e-06	6.26176e-06	4.29266e-06	7.32889e-06	7.81659e-06	6.87932e-06	0.0910871	0.0658736	0.389251	1.64865e-05	5.15582e-05	5.69422e-06	4.46916e-06	4.53047e-06	5.42829e-06	10.7694	3.25354	11.2502	16.81	275700	912584	953321	-73.19	0.0000000E+000	0.0000000E+000	0.0000000E+000	73.19	0.0000000E+000	0.0000000E+000	0.0000000E+000	-73.19	0.0000000E+000	0.0000000E+000	0.0000000E+000	-16.81	0.0000000E+000	0.0000000E+000	0.0000000E+000	16.81	3.31007	73.19	-0.000554512
57.6214	0.186236	0.041983	0.19091	-12.7037	1638.3	-0.000213561	-1.02215	65790.5	3181.66	3	37	0.00499493	0.0261638	0	-0.469007	0.396454	0.209862	7.39083	4.62507e-06	8.68442e-06	7.62302e-06	6.25832e-06	8.91592e-06	8.88396e-06	0.156356	0.146115	0.88497	3.36402e-06	2.83918e-05	4.76245e-06	2.73575e-05	4.8786e-06	5.36834e-06	5.10985	1.1519	5.23808	12.7037	3.18166e+06	1.41138e+07	1.4468e+07	-77.2963	0.0000000E+000	0.0000000E+000	0.0000000E+000	77.2963	0.0000000E+000	0.0000000E+000	0.0000000E+000	-77.2963	0.0000000E+000	0.0000000E+000	0.0000000E+000	-12.7037	0.0000000E+000	0.0000000E+000	0.0000000E+000	12.7037	4.436	77.2963	-0.000337598
1.76753	0.218836	0.00673816	0.218939	-1.76363	1653.89	-0.000212683	-1.01544	1.33632e+07	12657.4	3	37	0.00493466	0.0225389	0	-0.474046	0.150813	0.128758	2.20108	3.87199e-06	3.90445e-06	2.78544e-06	3.03533e-06	1.40803e-06	1.54626e-06	0.113132	0.0655238	0.679822	7.71839e-06	2.14445e-05	2.76696e-06	9.50138e-06	3.413e-06	1.97776e-06	4.56531	0.14057	4.56747	1.76363	1.26574e+07	4.11077e+08	4.11272e+08	-88.2364	0.0000000E+000	0.0000000E+000	0.0000000E+000	88.2364	0.0000000E+000	0.0000000E+000	0.0000000E+000	-88.2364	0.0000000E+000	0.0000000E+000	0.0000000E+000	-1.76363	0.0000000E+000	0.0000000E+000	0.0000000E+000	1.76363	32.4771	88.2364	-0.00169149
0.0541959	0.242912	0.00817021	0.243049	-1.92639	1999.36	-0.000193528	-0.934671	3.59435e+08	406161	3	38	0.00492923	0.0202808	0	-0.564172	0.121804	0.132983	0.379399	3.84506e-06	3.57545e-06	1.18717e-06	2.07522e-06	3.51354e-07	5.48024e-07	0.125794	0.251698	0.353602	1.30631e-05	1.16153e-05	3.38408e-06	1.58257e-05	3.10481e-06	2.63618e-06	4.11207	0.138307	4.11439	1.92639	4.06161e+08	1.20757e+10	1.20826e+10	-88.0736	0.0000000E+000	0.0000000E+000	0.0000000E+000	88.0736	0.0000000E+000	0.0000000E+000	0.0000000E+000	-88.0736	0.0000000E+000	0.0000000E+000	0.0000000E+000	-1.92639	0.0000000E+000	0.0000000E+000	0.0000000E+000	1.92639	29.7314	88.0736	-0.019209
0.0250094	0.249623	0.00146234	0.249627	-0.335647	2410.03	-0.000191953	-0.945623	4.35178e+09	149342	3	38	0.00492948	0.0197474	0	-0.651174	0.106534	0.104636	0.297528	2.18858e-06	4.05484e-06	8.36311e-07	1.53668e-06	4.89184e-07	7.8973e-07	0.191693	0.28539	0.285078	2.22721e-05	1.62977e-05	1.02725e-05	1.91302e-05	7.93715e-06	4.32626e-06	4.00591	0.0234675	4.00598	0.335647	1.49342e+08	2.54928e+10	2.54932e+10	-89.6644	0.0000000E+000	0.0000000E+000	0.0000000E+000	89.6644	0.0000000E+000	0.0000000E+000	0.0000000E+000	-89.6644	0.0000000E+000	0.0000000E+000	0.0000000E+000	-0.335647	0.0000000E+000	0.0000000E+000	0.0000000E+000	0.335647	170.7	89.6644	-0.0560832

File: 240405-EIS-50mM_FeCl2FeCl3-1M_HCl-30mLmin-LowFreq_20ppd_C15.mpt
EC-Lab ASCII FILE
Nb header lines : 66

Potentio Electrochemical Impedance Spectroscopy

Run on channel : 15 (SN 19485)
User :
Electrode connection : standard
Potential control : Ewe
Ewe ctrl range : min = -1.00 V, max = 1.00 V
Ewe,I filtering : <None>
Safety Limits :
	Do not start on E overload
Channel : Floating
Acquisition started on : 04/05/2024 14:02:43.389
Loaded Setting File :  NONE
Saved on :
	File : 240405-EIS-50mM_FeCl2FeCl3-1M_HCl-30mLmin-LowFreq_20ppd_C15.mpr
	Directory : C:\Data\mathias\IRFB\
	Host : 192.168.0.1
Device : VMP-300 (SN 0826)
Address : USB
EC-Lab for windows v11.52 (software)
Internet server v11.52 (firmware)
Command interpretor v11.52 (firmware)
Electrode material :
Initial state :
Electrolyte :
Comments :
Cable : special
Electrode surface area : 0.001 cm²
Characteristic mass : 0.001 g
Equivalent Weight : 0.000 g/eq.
Density : 0.000 g/cm3
Volume (V) : 0.001 cm³
Record EIS quality indicators
Cycle Definition : Charge/Discharge alternance
Mode                Single sine
E (V)               0.0000
vs.                 Eoc
tE (h:m:s)          0:00:0.0000
record              0
dI                  0.000
unit dI             mA
dt (s)              0.000
fi                  300.000
unit fi             kHz
ff                  25.000
unit ff             mHz
Nd                  20
Points              per decade
spacing             Logarithmic
Va (mV)             5.0
pw                  0.10
Na                  3
corr                0
E range min (V)     -1.000
E range max (V)     1.000
I Range             Auto
Bandwidth           8
nc cycles           2
goto Ns'            0
nr cycles           0
inc. cycle          0

freq/Hz	Re(Z)/Ohm	-Im(Z)/Ohm	|Z|/Ohm	Phase(Z)/deg	time/s	<Ewe>/V	<I>/mA	Cs/µF	Cp/µF	cycle number	I Range	|Ewe|/V	|I|/A	Ns	(Q-Qo)/mA.h	THD Ewe/%	NSD Ewe/%	NSR Ewe/%	|Ewe h2|/V	|Ewe h3|/V	|Ewe h4|/V	|Ewe h5|/V	|Ewe h6|/V	|Ewe h7|/V	THD I/%	NSD I/%	NSR I/%	|I h2|/A	|I h3|/A	|I h4|/A	|I h5|/A	|I h6|/A	|I h7|/A	Re(Y)/Ohm-1	Im(Y)/Ohm-1	|Y|/Ohm-1	Phase(Y)/deg	Re(C)/nF	Im(C)/nF	|C|/nF	Phase(C)/deg	Re(M)	Im(M)	|M|	Phase(M)/deg	Re(Permittivity)	Im(Permittivity)	|Permittivity|	Phase(Permittivity)/deg	Re(Resistivity)/Ohm.cm	Im(Resistivity)/Ohm.cm	|Resistivity|/Ohm.cm	Phase(Resistivity)/deg	Re(Conductivity)/mS/cm	Im(Conductivity)/mS/cm	|Conductivity|/mS/cm	Phase(Conductivity)/deg	Tan(Delta)	Loss Angle(Delta)/deg	dq/mA.h
300002	0.0443908	-0.0485283	0.0657688	47.5496	1.82249	-7.07364e-05	-0.444235	-10.932	-5.95184	1	37	0.00145356	0.022101	0	-0.000198522	-1	-1	-1	0	0	0	0	0	0	-1	-1	-1	0	0	0	0	0	0	10.2625	-11.219	15.2048	-47.5496	-5951.84	5444.39	8066.34	-137.55	0.0000000E+000	0.0000000E+000	0.0000000E+000	137.55	0.0000000E+000	0.0000000E+000	0.0000000E+000	-137.55	0.0000000E+000	0.0000000E+000	0.0000000E+000	47.5496	0.0000000E+000	0.0000000E+000	0.0000000E+000	-47.5496	0.914741	42.4504	-0.000198522
15170.4	0.0626374	0.00868363	0.0632365	-7.89279	31.5455	-6.19192e-05	-0.372692	1208.16	22.7819	1	37	0.00508937	0.0804816	0	-0.00355248	0.388127	0.170509	7.29594	6.09572e-06	1.27157e-05	7.01215e-06	5.97715e-06	3.85139e-06	8.62788e-06	0.1808	0.039586	0.287995	1.74787e-05	0.000142417	3.12591e-06	2.22972e-05	3.78406e-06	3.72617e-06	15.6638	2.17153	15.8137	7.89279	22781.9	164332	165904	-82.1072	0.0000000E+000	0.0000000E+000	0.0000000E+000	82.1072	0.0000000E+000	0.0000000E+000	0.0000000E+000	-82.1072	0.0000000E+000	0.0000000E+000	0.0000000E+000	-7.89279	0.0000000E+000	0.0000000E+000	0.0000000E+000	7.89279	7.21328	82.1072	-0.000149446
766.717	0.10184	0.0343671	0.107482	-18.6476	64.8023	-0.000194436	-0.852138	6040.07	617.525	1	37	0.00507683	0.0472341	0	-0.0105415	0.345276	0.193184	7.34191	8.65337e-06	5.1212e-06	6.9624e-06	5.289e-06	4.57426e-06	6.37761e-06	0.0475987	0.0130142	0.488378	7.77549e-06	1.19149e-05	6.02963e-06	1.41391e-05	5.01323e-06	3.52571e-06	8.81543	2.97488	9.30386	18.6476	617525	1.82991e+06	1.93129e+06	-71.3524	0.0000000E+000	0.0000000E+000	0.0000000E+000	71.3524	0.0000000E+000	0.0000000E+000	0.0000000E+000	-71.3524	0.0000000E+000	0.0000000E+000	0.0000000E+000	-18.6476	0.0000000E+000	0.0000000E+000	0.0000000E+000	18.6476	2.96329	71.3524	-0.000265544
38.7717	0.197327	0.0353884	0.200475	-10.1673	94.2521	-0.000175106	-0.804586	115996	3614.49	1	37	0.00496366	0.0247595	0	-0.0168357	0.360358	0.209116	7.40583	6.56041e-06	1.04065e-05	7.50979e-06	6.7222e-06	3.32671e-06	4.70748e-06	0.160314	0.0695413	0.952052	1.2178e-05	2.30482e-05	1.23437e-05	2.48274e-05	7.35955e-06	4.41619e-06	4.90983	0.880525	4.98816	10.1673	3.61449e+06	2.01545e+07	2.0476e+07	-79.8327	0.0000000E+000	0.0000000E+000	0.0000000E+000	79.8327	0.0000000E+000	0.0000000E+000	0.0000000E+000	-79.8327	0.0000000E+000	0.0000000E+000	0.0000000E+000	-10.1673	0.0000000E+000	0.0000000E+000	0.0000000E+000	10.1673	5.57602	79.8327	-0.000282173
1.9595	0.219136	0.00679988	0.219242	-1.77734	135.794	-0.000164254	-0.769642	1.19447e+07	11490.3	1	37	0.00493586	0.0225133	0	-0.026266	0.141559	0.0682339	2.32182	1.86041e-06	3.68142e-06	2.11771e-06	2.89619e-06	1.4519e-06	2.85728e-06	0.123311	0.0809437	0.672547	7.64969e-06	2.28389e-05	2.50812e-06	1.3041e-05	1.84984e-06	1.32533e-06	4.55898	0.141467	4.56118	1.77734	1.14903e+07	3.70292e+08	3.7047e+08	-88.2227	0.0000000E+000	0.0000000E+000	0.0000000E+000	88.2227	0.0000000E+000	0.0000000E+000	0.0000000E+000	-88.2227	0.0000000E+000	0.0000000E+000	0.0000000E+000	-1.77734	0.0000000E+000	0.0000000E+000	0.0000000E+000	1.77734	32.2265	88.2227	-0.00105673
0.0991173	0.243455	0.0082067	0.243593	-1.93067	685.439	-0.000157556	-0.830891	1.9566e+08	222080	1	38	0.00492721	0.0202272	0	-0.158882	0.111635	0.113513	0.505198	2.91196e-06	4.02065e-06	8.18244e-07	1.49442e-06	1.12858e-06	3.84612e-07	0.12108	0.154963	0.421469	6.00719e-06	1.65329e-05	3.56853e-06	1.49329e-05	4.50277e-06	2.09021e-06	4.10288	0.138305	4.10521	1.93067	2.2208e+08	6.58809e+09	6.59183e+09	-88.0693	0.0000000E+000	0.0000000E+000	0.0000000E+000	88.0693	0.0000000E+000	0.0000000E+000	0.0000000E+000	-88.0693	0.0000000E+000	0.0000000E+000	0.0000000E+000	-1.93067	0.0000000E+000	0.0000000E+000	0.0000000E+000	1.93067	29.6654	88.0693	-0.0121057
67454.7	0.0562097	-0.00682317	0.0566223	6.92115	2389.72	-6.11363e-05	-0.37405	-345.797	-5.02134	2	37	0.00509605	0.0900008	0	-0.487001	0.369912	0.266612	7.41561	5.61776e-06	3.76915e-06	6.50422e-06	4.56238e-06	8.31753e-06	1.18182e-05	0.156893	0.0455727	0.262733	3.30495e-05	0.000136337	8.44476e-06	7.76193e-06	5.01035e-06	3.44538e-06	17.5322	-2.1282	17.6609	-6.92115	-5021.34	41366.1	41669.7	-96.9211	0.0000000E+000	0.0000000E+000	0.0000000E+000	96.9211	0.0000000E+000	0.0000000E+000	0.0000000E+000	-96.9211	0.0000000E+000	0.0000000E+000	0.0000000E+000	6.92115	0.0000000E+000	0.0000000E+000	0.0000000E+000	-6.92115	8.23806	83.0789	-0.000173997
[...]
15170.4	0.0625852	0.0086109	0.0631748	-7.83396	4777.78	-6.2348e-05	-0.272191	1218.36	22.6353	3	37	0.00508241	0.08045	0	-0.991031	0.449472	0.18822	7.39628	5.18315e-06	1.50442e-05	7.13342e-06	6.31112e-06	6.96093e-06	1.03864e-05	0.174395	0.0442743	0.287344	1.11929e-05	0.000136742	7.68608e-06	2.75882e-05	3.70226e-06	2.79779e-06	15.6814	2.15755	15.8291	7.83396	22635.3	164516	166066	-82.166	0.0000000E+000	0.0000000E+000	0.0000000E+000	82.166	0.0000000E+000	0.0000000E+000	0.0000000E+000	-82.166	0.0000000E+000	0.0000000E+000	0.0000000E+000	-7.83396	0.0000000E+000	0.0000000E+000	0.0000000E+000	7.83396	7.26814	82.166	-0.000108202
766.717	0.101906	0.034359	0.107543	-18.6322	4811.04	-0.000177473	-0.752902	6041.49	616.688	3	37	0.00496182	0.0461382	0	-0.997655	0.292233	0.176455	7.47212	4.20137e-06	5.20607e-06	7.74776e-06	6.36029e-06	4.85537e-06	3.56669e-06	0.0518157	0.0191121	0.51028	7.39653e-06	1.73659e-05	4.51683e-06	1.24695e-05	2.8207e-06	4.51099e-06	8.81129	2.97085	9.29865	18.6322	616688	1.82905e+06	1.93021e+06	-71.3678	0.0000000E+000	0.0000000E+000	0.0000000E+000	71.3678	0.0000000E+000	0.0000000E+000	0.0000000E+000	-71.3678	0.0000000E+000	0.0000000E+000	0.0000000E+000	-18.6322	0.0000000E+000	0.0000000E+000	0.0000000E+000	18.6322	2.96592	71.3678	-0.000336739
38.7717	0.198077	0.0359052	0.201304	-10.2744	4840.27	-0.000150463	-0.729304	114327	3637.11	3	37	0.00511966	0.0254324	0	-1.00321	0.35931	0.209691	7.23337	9.80037e-06	8.00707e-06	3.46737e-06	6.77066e-06	7.44787e-06	3.07727e-06	0.146171	0.0651853	0.915226	5.67142e-06	2.51863e-05	5.45819e-06	2.52475e-05	4.15494e-06	4.00814e-06	4.88794	0.886035	4.9676	10.2744	3.6371e+06	2.00646e+07	2.03916e+07	-79.7256	0.0000000E+000	0.0000000E+000	0.0000000E+000	79.7256	0.0000000E+000	0.0000000E+000	0.0000000E+000	-79.7256	0.0000000E+000	0.0000000E+000	0.0000000E+000	-10.2744	0.0000000E+000	0.0000000E+000	0.0000000E+000	10.2744	5.51665	79.7256	-0.000234612
1.9595	0.220342	0.00685972	0.220448	-1.78317	4881.82	-0.000139152	-0.717164	1.18405e+07	11464.9	3	37	0.00509035	0.0230909	0	-1.01103	0.141304	0.106376	2.22188	2.83344e-06	4.03852e-06	1.90914e-06	3.88304e-06	1.6185e-06	1.49497e-06	0.124511	0.0733123	0.65875	9.02094e-06	2.2243e-05	1.81235e-06	1.46995e-05	2.94647e-06	2.93761e-06	4.53401	0.141154	4.53621	1.78317	1.14648e+07	3.68264e+08	3.68442e+08	-88.2168	0.0000000E+000	0.0000000E+000	0.0000000E+000	88.2168	0.0000000E+000	0.0000000E+000	0.0000000E+000	-88.2168	0.0000000E+000	0.0000000E+000	0.0000000E+000	-1.78317	0.0000000E+000	0.0000000E+000	0.0000000E+000	1.78317	32.1211	88.2168	-0.000390339
0.221474	0.23679	0.0141367	0.237211	-3.41658	5115.53	-0.000151278	-0.759965	5.08334e+07	180539	3	38	0.00508629	0.021442	0	-1.06182	0.111524	0.0428835	0.717558	2.16107e-06	4.24837e-06	1.06626e-06	2.06681e-06	1.11117e-06	1.10589e-06	0.122802	0.0420135	0.553764	5.5263e-06	1.85802e-05	3.08154e-06	1.68511e-05	3.2993e-06	2.49864e-06	4.20815	0.251232	4.21565	3.41658	1.8054e+08	3.02404e+09	3.02943e+09	-86.5834	0.0000000E+000	0.0000000E+000	0.0000000E+000	86.5834	0.0000000E+000	0.0000000E+000	0.0000000E+000	-86.5834	0.0000000E+000	0.0000000E+000	0.0000000E+000	-3.41658	0.0000000E+000	0.0000000E+000	0.0000000E+000	3.41658	16.75	86.5834	-0.0100827