Folder: Thesis/Python/Experiments/IRFB/FirstCell/Data (part 3)

File: 240411-EIS-50mM_FeCl2FeCl3-1M_HCl-10mLmin-25mHz_20ppd_C15.mpt
EC-Lab ASCII FILE
Nb header lines : 66

Potentio Electrochemical Impedance Spectroscopy

Run on channel : 15 (SN 19485)
User :
Electrode connection : standard
Potential control : Ewe
Ewe ctrl range : min = -1.00 V, max = 1.00 V
Ewe,I filtering : <None>
Safety Limits :
	Do not start on E overload
Channel : Floating
Acquisition started on : 04/11/2024 10:45:14.386
Loaded Setting File :  NONE
Saved on :
	File : 240411-EIS-50mM_FeCl2FeCl3-1M_HCl-10mLmin-25mHz_20ppd_C15.mpr
	Directory : C:\Data\mathias\IRFB\
	Host : 192.168.0.1
Device : VMP-300 (SN 0826)
Address : USB
EC-Lab for windows v11.52 (software)
Internet server v11.52 (firmware)
Command interpretor v11.52 (firmware)
Electrode material :
Initial state :
Electrolyte :
Comments :
Cable : special
Electrode surface area : 0.001 cm²
Characteristic mass : 0.001 g
Equivalent Weight : 0.000 g/eq.
Density : 0.000 g/cm3
Volume (V) : 0.001 cm³
Record EIS quality indicators
Cycle Definition : Charge/Discharge alternance
Mode                Single sine
E (V)               0.0000
vs.                 Eoc
tE (h:m:s)          0:00:0.0000
record              0
dI                  0.000
unit dI             mA
dt (s)              0.000
fi                  920.000
unit fi             kHz
ff                  25.000
unit ff             mHz
Nd                  20
Points              per decade
spacing             Logarithmic
Va (mV)             5.0
pw                  0.10
Na                  3
corr                0
E range min (V)     -1.000
E range max (V)     1.000
I Range             Auto
Bandwidth           8
nc cycles           0
goto Ns'            0
nr cycles           0
inc. cycle          0

freq/Hz	Re(Z)/Ohm	-Im(Z)/Ohm	|Z|/Ohm	Phase(Z)/deg	time/s	<Ewe>/V	<I>/mA	Cs/µF	Cp/µF	cycle number	I Range	|Ewe|/V	|I|/A	Ns	(Q-Qo)/mA.h	THD Ewe/%	NSD Ewe/%	NSR Ewe/%	|Ewe h2|/V	|Ewe h3|/V	|Ewe h4|/V	|Ewe h5|/V	|Ewe h6|/V	|Ewe h7|/V	THD I/%	NSD I/%	NSR I/%	|I h2|/A	|I h3|/A	|I h4|/A	|I h5|/A	|I h6|/A	|I h7|/A	Re(Y)/Ohm-1	Im(Y)/Ohm-1	|Y|/Ohm-1	Phase(Y)/deg	Re(C)/nF	Im(C)/nF	|C|/nF	Phase(C)/deg	Re(M)	Im(M)	|M|	Phase(M)/deg	Re(Permittivity)	Im(Permittivity)	|Permittivity|	Phase(Permittivity)/deg	Re(Resistivity)/Ohm.cm	Im(Resistivity)/Ohm.cm	|Resistivity|/Ohm.cm	Phase(Resistivity)/deg	Re(Conductivity)/mS/cm	Im(Conductivity)/mS/cm	|Conductivity|/mS/cm	Phase(Conductivity)/deg	Tan(Delta)	Loss Angle(Delta)/deg	dq/mA.h
920001	-0.130512	-0.127293	0.18231	135.715	2.16849	4.88895e-06	-0.015134	-1.35902	-0.662546	1	37	0.000542034	0.00297314	0	-1.60386e-05	-1	-1	-1	0	0	0	0	0	0	-1	-1	-1	0	0	0	0	0	0	-3.92671	-3.82987	5.48516	-135.715	-662.546	-679.298	948.901	134.285	0.0000000E+000	0.0000000E+000	0.0000000E+000	-134.285	0.0000000E+000	0.0000000E+000	0.0000000E+000	134.285	0.0000000E+000	0.0000000E+000	0.0000000E+000	135.715	0.0000000E+000	0.0000000E+000	0.0000000E+000	-135.715	1.02529	45.7153	-1.60386e-05
290232	0.0513165	-0.00374742	0.0514532	4.17665	13.6395	-1.4777e-05	-0.0532865	-146.333	-0.776218	1	37	0.00115959	0.0225368	0	-8.33558e-05	-1	-1	-1	0	0	0	0	0	0	-1	-1	-1	0	0	0	0	0	0	19.3835	-1.41549	19.4351	-4.17665	-776.217	10629.4	10657.7	-94.1766	0.0000000E+000	0.0000000E+000	0.0000000E+000	94.1766	0.0000000E+000	0.0000000E+000	0.0000000E+000	-94.1766	0.0000000E+000	0.0000000E+000	0.0000000E+000	4.17665	0.0000000E+000	0.0000000E+000	0.0000000E+000	-4.17665	13.6938	85.8234	1.1292e-05
91560.3	0.0620698	0.00219647	0.0621086	-2.02669	24.8495	-4.20759e-06	-0.0417644	791.383	0.989772	1	37	0.00511687	0.0823858	0	-0.000285018	0.319064	0.235245	6.84164	4.79792e-06	9.79839e-06	5.40613e-06	6.16029e-06	4.22301e-06	5.24818e-06	0.128858	0.0221969	0.239063	2.57491e-05	0.000102431	7.21962e-06	6.77878e-06	1.08667e-06	2.43957e-06	16.0907	0.569406	16.1008	2.02669	989.771	27969.8	27987.3	-87.9733	0.0000000E+000	0.0000000E+000	0.0000000E+000	87.9733	0.0000000E+000	0.0000000E+000	0.0000000E+000	-87.9733	0.0000000E+000	0.0000000E+000	0.0000000E+000	-2.02669	0.0000000E+000	0.0000000E+000	0.0000000E+000	2.02669	28.2588	87.9733	9.30453e-05
28884	0.0662439	0.00828772	0.0667603	-7.13117	36.3305	-2.54857e-06	-0.0601898	664.857	10.2462	1	37	0.00508897	0.0762274	0	-0.000256615	0.372273	0.210104	6.76951	5.45716e-06	9.66374e-06	5.79669e-06	7.91009e-06	5.47653e-06	8.2323e-06	0.168479	0.046867	0.26022	3.39319e-05	0.000122904	6.29389e-06	1.19842e-05	5.51966e-06	3.2454e-06	14.8631	1.85951	14.979	7.13117	10246.2	81897.8	82536.2	-82.8688	0.0000000E+000	0.0000000E+000	0.0000000E+000	82.8688	0.0000000E+000	0.0000000E+000	0.0000000E+000	-82.8688	0.0000000E+000	0.0000000E+000	0.0000000E+000	-7.13117	0.0000000E+000	0.0000000E+000	0.0000000E+000	7.13117	7.99302	82.8688	9.69435e-05
9107.2	0.0743407	0.0155472	0.0759491	-11.8123	47.8155	-0.000126789	-0.382649	1124.04	47.1024	1	37	0.00518399	0.0682561	0	-0.000272565	0.353742	0.114708	6.74785	9.26642e-06	1.01942e-05	6.28303e-06	5.62499e-06	5.76745e-06	3.32102e-06	0.163102	0.018129	0.290081	1.05402e-05	0.000109507	5.22219e-06	1.3305e-05	6.95632e-06	4.74047e-06	12.8879	2.6953	13.1667	11.8123	47102.4	225225	230098	-78.1877	0.0000000E+000	0.0000000E+000	0.0000000E+000	78.1877	0.0000000E+000	0.0000000E+000	0.0000000E+000	-78.1877	0.0000000E+000	0.0000000E+000	0.0000000E+000	-11.8123	0.0000000E+000	0.0000000E+000	0.0000000E+000	11.8123	4.78161	78.1877	-0.000128057
2874.08	0.0877505	0.0250628	0.0912595	-15.9401	60.6338	-0.000141198	-0.347083	2209.48	166.646	1	37	0.00509261	0.0558036	0	-0.00160123	0.324521	0.160396	6.73896	7.8075e-06	8.14841e-06	3.93741e-06	7.39615e-06	4.26914e-06	6.46797e-06	0.0935781	0.0965002	0.364528	1.06485e-05	4.86724e-05	3.48294e-06	1.00522e-05	6.88487e-06	5.10124e-06	10.5364	3.00936	10.9578	15.9401	166646	583464	606796	-74.0599	0.0000000E+000	0.0000000E+000	0.0000000E+000	74.0599	0.0000000E+000	0.0000000E+000	0.0000000E+000	-74.0599	0.0000000E+000	0.0000000E+000	0.0000000E+000	-15.9401	0.0000000E+000	0.0000000E+000	0.0000000E+000	15.9401	3.50122	74.0599	-6.75735e-05
907.034	0.108789	0.0380637	0.115256	-19.2842	73.9183	-0.000126752	-0.331841	4609.83	502.785	1	37	0.00511804	0.0444059	0	-0.00277609	0.299198	0.167682	6.80038	4.81976e-06	4.37619e-06	7.96688e-06	5.93879e-06	4.61737e-06	6.40293e-06	0.0406744	0.0558069	0.451535	4.97652e-06	1.09078e-05	5.89509e-06	1.00551e-05	3.97291e-06	3.99006e-06	8.18954	2.8654	8.67635	19.2842	502785	1.437e+06	1.52242e+06	-70.7158	0.0000000E+000	0.0000000E+000	0.0000000E+000	70.7158	0.0000000E+000	0.0000000E+000	0.0000000E+000	-70.7158	0.0000000E+000	0.0000000E+000	0.0000000E+000	-19.2842	0.0000000E+000	0.0000000E+000	0.0000000E+000	19.2842	2.85808	70.7158	-0.000131172
286.007	0.138326	0.0569615	0.149595	-22.3815	85.6521	-0.000101232	-0.338169	9769.27	1416.42	1	37	0.00532475	0.0355944	0	-0.0038458	0.346464	0.202411	6.60131	5.35104e-06	9.21828e-06	8.61816e-06	5.26438e-06	6.48625e-06	7.57647e-06	0.0901051	0.0250364	0.562252	3.53337e-06	2.68612e-05	6.04538e-06	1.51396e-05	2.8877e-06	4.09814e-06	6.18115	2.54535	6.68472	22.3815	1.41642e+06	3.43964e+06	3.71986e+06	-67.6185	0.0000000E+000	0.0000000E+000	0.0000000E+000	67.6185	0.0000000E+000	0.0000000E+000	0.0000000E+000	-67.6185	0.0000000E+000	0.0000000E+000	0.0000000E+000	-22.3815	0.0000000E+000	0.0000000E+000	0.0000000E+000	22.3815	2.42841	67.6185	-0.000137795
[...]
0.893876	0.359732	0.015323	0.360059	-2.43908	184.471	-8.7783e-05	-0.320425	1.16198e+07	21044.6	1	38	0.00492082	0.0136667	0	-0.0118017	0.122489	0.0847289	1.37144	2.32045e-06	3.28374e-06	2.18285e-06	2.00147e-06	1.99454e-06	1.97508e-06	0.136474	0.108014	0.446079	1.10714e-05	8.71976e-06	3.44754e-06	1.05805e-05	2.62793e-06	1.27163e-06	2.77481	0.118195	2.77733	2.43908	2.10446e+07	4.94056e+08	4.94504e+08	-87.5609	0.0000000E+000	0.0000000E+000	0.0000000E+000	87.5609	0.0000000E+000	0.0000000E+000	0.0000000E+000	-87.5609	0.0000000E+000	0.0000000E+000	0.0000000E+000	-2.43908	0.0000000E+000	0.0000000E+000	0.0000000E+000	2.43908	23.4766	87.5609	0.000600019
0.281811	0.365704	0.0228625	0.366418	-3.57727	323.695	-9.82042e-05	-0.332847	2.47024e+07	96168.3	1	38	0.00491988	0.0134269	0	-0.0255774	0.0940479	0.0674995	0.783387	1.55979e-06	3.19971e-06	1.85688e-06	1.51584e-06	1.09282e-06	8.21307e-07	0.184481	0.118178	0.424289	1.81063e-05	8.1359e-06	8.27688e-06	9.58857e-06	2.88874e-06	4.02563e-06	2.72381	0.170282	2.72912	3.57727	9.61682e+07	1.53829e+09	1.54129e+09	-86.4227	0.0000000E+000	0.0000000E+000	0.0000000E+000	86.4227	0.0000000E+000	0.0000000E+000	0.0000000E+000	-86.4227	0.0000000E+000	0.0000000E+000	0.0000000E+000	-3.57727	0.0000000E+000	0.0000000E+000	0.0000000E+000	3.57727	15.9958	86.4227	-0.000512256
0.0888996	0.399443	0.0425903	0.401707	-6.08613	758.017	-0.000110458	-0.363062	4.20348e+07	472512	1	38	0.00492	0.0122477	0	-0.0674767	0.101763	0.130095	0.449923	1.74954e-06	3.28522e-06	1.24754e-06	2.50358e-06	9.61303e-07	1.22048e-06	0.141857	0.118107	0.465055	6.00083e-06	9.85238e-06	2.75994e-06	1.09094e-05	2.69038e-06	5.20988e-06	2.47535	0.263932	2.48938	6.08613	4.72512e+08	4.43156e+09	4.45668e+09	-83.9139	0.0000000E+000	0.0000000E+000	0.0000000E+000	83.9139	0.0000000E+000	0.0000000E+000	0.0000000E+000	-83.9139	0.0000000E+000	0.0000000E+000	0.0000000E+000	-6.08613	0.0000000E+000	0.0000000E+000	0.0000000E+000	6.08613	9.37872	83.9139	-0.0112885
0.0280409	0.431694	0.0276279	0.432577	-3.66186	2128.55	-0.000114586	-0.332775	2.05438e+08	838010	1	38	0.00491996	0.0113736	0	-0.200046	0.103157	0.0765946	0.27739	2.77007e-06	3.14421e-06	9.50214e-07	1.9951e-06	1.01771e-06	6.99446e-07	0.135599	0.143334	0.517917	7.88362e-06	7.58774e-06	3.56837e-06	9.33149e-06	2.35167e-06	2.19315e-06	2.30701	0.147646	2.31173	3.66186	8.38011e+08	1.30942e+10	1.3121e+10	-86.3381	0.0000000E+000	0.0000000E+000	0.0000000E+000	86.3381	0.0000000E+000	0.0000000E+000	0.0000000E+000	-86.3381	0.0000000E+000	0.0000000E+000	0.0000000E+000	-3.66186	0.0000000E+000	0.0000000E+000	0.0000000E+000	3.66186	15.6253	86.3381	-0.01821
0.0250094	0.433134	0.0250115	0.433855	-3.3049	2373.01	-0.000106788	-0.318365	2.54435e+08	845602	1	38	0.00491711	0.0113335	0	-0.210839	0.0937468	0.0731711	0.28654	1.63344e-06	3.22399e-06	1.03531e-06	2.38331e-06	4.84415e-07	7.71263e-07	0.130747	0.137523	0.526277	2.74658e-06	8.92145e-06	3.34822e-06	1.00285e-05	2.18122e-06	1.41558e-06	2.30108	0.132877	2.30492	3.3049	8.45602e+08	1.46436e+10	1.4668e+10	-86.6951	0.0000000E+000	0.0000000E+000	0.0000000E+000	86.6951	0.0000000E+000	0.0000000E+000	0.0000000E+000	-86.6951	0.0000000E+000	0.0000000E+000	0.0000000E+000	-3.3049	0.0000000E+000	0.0000000E+000	0.0000000E+000	3.3049	17.3174	86.6951	-0.0107923

File: 240411-EIS-50mM_FeCl2FeCl3-1M_HCl-20mLmin-25mHz_20ppd_C15.mpt
EC-Lab ASCII FILE
Nb header lines : 66

Potentio Electrochemical Impedance Spectroscopy

Run on channel : 15 (SN 19485)
User :
Electrode connection : standard
Potential control : Ewe
Ewe ctrl range : min = -1.00 V, max = 1.00 V
Ewe,I filtering : <None>
Safety Limits :
	Do not start on E overload
Channel : Floating
Acquisition started on : 04/11/2024 10:02:50.464
Loaded Setting File :  NONE
Saved on :
	File : 240411-EIS-50mM_FeCl2FeCl3-1M_HCl-20mLmin-25mHz_20ppd_C15.mpr
	Directory : C:\Data\mathias\IRFB\
	Host : 192.168.0.1
Device : VMP-300 (SN 0826)
Address : USB
EC-Lab for windows v11.52 (software)
Internet server v11.52 (firmware)
Command interpretor v11.52 (firmware)
Electrode material :
Initial state :
Electrolyte :
Comments :
Cable : special
Electrode surface area : 0.001 cm²
Characteristic mass : 0.001 g
Equivalent Weight : 0.000 g/eq.
Density : 0.000 g/cm3
Volume (V) : 0.001 cm³
Record EIS quality indicators
Cycle Definition : Charge/Discharge alternance
Mode                Single sine
E (V)               0.0000
vs.                 Eoc
tE (h:m:s)          0:00:0.0000
record              0
dI                  0.000
unit dI             mA
dt (s)              0.000
fi                  920.000
unit fi             kHz
ff                  25.000
unit ff             mHz
Nd                  20
Points              per decade
spacing             Logarithmic
Va (mV)             5.0
pw                  0.10
Na                  3
corr                0
E range min (V)     -1.000
E range max (V)     1.000
I Range             Auto
Bandwidth           8
nc cycles           0
goto Ns'            0
nr cycles           999
inc. cycle          1

freq/Hz	Re(Z)/Ohm	-Im(Z)/Ohm	|Z|/Ohm	Phase(Z)/deg	time/s	<Ewe>/V	<I>/mA	Cs/µF	Cp/µF	cycle number	I Range	|Ewe|/V	|I|/A	Ns	(Q-Qo)/mA.h	THD Ewe/%	NSD Ewe/%	NSR Ewe/%	|Ewe h2|/V	|Ewe h3|/V	|Ewe h4|/V	|Ewe h5|/V	|Ewe h6|/V	|Ewe h7|/V	THD I/%	NSD I/%	NSR I/%	|I h2|/A	|I h3|/A	|I h4|/A	|I h5|/A	|I h6|/A	|I h7|/A	Re(Y)/Ohm-1	Im(Y)/Ohm-1	|Y|/Ohm-1	Phase(Y)/deg	Re(C)/nF	Im(C)/nF	|C|/nF	Phase(C)/deg	Re(M)	Im(M)	|M|	Phase(M)/deg	Re(Permittivity)	Im(Permittivity)	|Permittivity|	Phase(Permittivity)/deg	Re(Resistivity)/Ohm.cm	Im(Resistivity)/Ohm.cm	|Resistivity|/Ohm.cm	Phase(Resistivity)/deg	Re(Conductivity)/mS/cm	Im(Conductivity)/mS/cm	|Conductivity|/mS/cm	Phase(Conductivity)/deg	Tan(Delta)	Loss Angle(Delta)/deg	dq/mA.h
920001	-0.130327	-0.126489	0.181617	135.856	1.97749	-0.00013076	-0.471948	-1.36766	-0.663395	1	37	0.000540111	0.0029739	0	-0.000239721	-1	-1	-1	0	0	0	0	0	0	-1	-1	-1	0	0	0	0	0	0	-3.95114	-3.83478	5.50609	-135.856	-663.395	-683.525	952.523	134.144	0.0000000E+000	0.0000000E+000	0.0000000E+000	-134.144	0.0000000E+000	0.0000000E+000	0.0000000E+000	134.144	0.0000000E+000	0.0000000E+000	0.0000000E+000	135.856	0.0000000E+000	0.0000000E+000	0.0000000E+000	-135.856	1.03034	45.8562	-0.000239721
290232	0.0514552	-0.00315388	0.0515518	3.50749	13.4525	-0.00012252	-0.46843	-173.872	-0.65078	1	37	0.00116181	0.0225369	0	-0.0017343	-1	-1	-1	0	0	0	0	0	0	-1	-1	-1	0	0	0	0	0	0	19.3616	-1.18675	19.398	-3.50749	-650.779	10617.4	10637.3	-93.5075	0.0000000E+000	0.0000000E+000	0.0000000E+000	93.5075	0.0000000E+000	0.0000000E+000	0.0000000E+000	-93.5075	0.0000000E+000	0.0000000E+000	0.0000000E+000	3.50749	0.0000000E+000	0.0000000E+000	0.0000000E+000	-3.50749	16.3149	86.4925	-0.000159906
91560.3	0.0621454	0.00245936	0.062194	-2.26626	24.7965	-0.000129678	-0.447211	706.79	1.10519	1	37	0.00510076	0.0820136	0	-0.00323373	0.280755	0.170547	6.77663	3.9941e-06	6.52779e-06	3.62535e-06	5.12156e-06	4.78847e-06	7.26355e-06	0.133686	0.0193393	0.242816	2.08451e-05	0.000107191	6.73566e-06	4.36141e-06	2.42905e-06	2.6935e-06	16.0661	0.635807	16.0787	2.26626	1105.19	27927	27948.9	-87.7337	0.0000000E+000	0.0000000E+000	0.0000000E+000	87.7337	0.0000000E+000	0.0000000E+000	0.0000000E+000	-87.7337	0.0000000E+000	0.0000000E+000	0.0000000E+000	-2.26626	0.0000000E+000	0.0000000E+000	0.0000000E+000	2.26626	25.2689	87.7337	-0.000134724
28884	0.0664314	0.00842931	0.0669641	-7.23147	36.2775	-0.00012636	-0.425566	653.689	10.3579	1	37	0.00509481	0.0760827	0	-0.0045191	0.292434	0.155319	6.90413	6.02778e-06	7.54871e-06	6.90502e-06	3.35383e-06	3.91982e-06	4.02495e-06	0.170008	0.0428792	0.264548	3.4946e-05	0.000123618	7.11032e-06	1.23443e-05	2.79662e-06	5.11186e-06	14.8146	1.87979	14.9334	7.23147	10357.9	81630.6	82285.1	-82.7685	0.0000000E+000	0.0000000E+000	0.0000000E+000	82.7685	0.0000000E+000	0.0000000E+000	0.0000000E+000	-82.7685	0.0000000E+000	0.0000000E+000	0.0000000E+000	-7.23147	0.0000000E+000	0.0000000E+000	0.0000000E+000	7.23147	7.881	82.7685	-0.000121147
9107.2	0.0744644	0.0156357	0.0760883	-11.8584	47.7625	-0.000245139	-0.679573	1117.68	47.1973	1	37	0.00515567	0.0677591	0	-0.00593093	0.395646	0.157274	6.7104	1.08446e-05	1.23618e-05	4.28161e-06	3.79728e-06	6.30116e-06	6.33248e-06	0.1654	0.0221828	0.295104	1.32245e-05	0.000110434	3.3265e-06	1.11352e-05	3.45793e-06	5.22079e-06	12.8621	2.70073	13.1426	11.8584	47197.2	224775	229677	-78.1416	0.0000000E+000	0.0000000E+000	0.0000000E+000	78.1416	0.0000000E+000	0.0000000E+000	0.0000000E+000	-78.1416	0.0000000E+000	0.0000000E+000	0.0000000E+000	-11.8584	0.0000000E+000	0.0000000E+000	0.0000000E+000	11.8584	4.76247	78.1416	-0.000212245
2874.08	0.0881147	0.0252031	0.0916482	-15.9619	60.5798	-0.000234737	-0.651582	2197.19	166.16	1	37	0.00509154	0.0555553	0	-0.00828448	0.311545	0.17092	6.66923	6.04895e-06	8.85187e-06	6.43938e-06	6.40351e-06	4.3338e-06	4.46646e-06	0.0893693	0.0985857	0.367351	9.13488e-06	4.7898e-05	3.08273e-06	4.11124e-06	4.48191e-06	4.95926e-06	10.4906	3.00058	10.9113	15.9619	166160	580926	604222	-74.0381	0.0000000E+000	0.0000000E+000	0.0000000E+000	74.0381	0.0000000E+000	0.0000000E+000	0.0000000E+000	-74.0381	0.0000000E+000	0.0000000E+000	0.0000000E+000	-15.9619	0.0000000E+000	0.0000000E+000	0.0000000E+000	15.9619	3.49619	74.0381	-0.000156288
907.034	0.109269	0.038231	0.115764	-19.2839	73.8653	-0.000242324	-0.643375	4589.66	500.57	1	37	0.00502821	0.043435	0	-0.010713	0.346677	0.198226	6.87728	6.81014e-06	7.41617e-06	4.1058e-06	6.0697e-06	8.44445e-06	5.18565e-06	0.0502394	0.0625136	0.460671	6.74408e-06	1.23954e-05	4.13322e-06	1.2948e-05	5.75114e-06	4.75121e-06	8.1536	2.85278	8.63826	19.2839	500570	1.43069e+06	1.51573e+06	-70.7161	0.0000000E+000	0.0000000E+000	0.0000000E+000	70.7161	0.0000000E+000	0.0000000E+000	0.0000000E+000	-70.7161	0.0000000E+000	0.0000000E+000	0.0000000E+000	-19.2839	0.0000000E+000	0.0000000E+000	0.0000000E+000	19.2839	2.85812	70.7161	-0.000252253
286.007	0.138943	0.0569477	0.150161	-22.2869	85.5961	-0.000220589	-0.639188	9771.63	1405.42	1	37	0.00548662	0.0365383	0	-0.0128142	0.283668	0.156029	6.34829	5.27819e-06	5.64173e-06	6.96868e-06	5.80058e-06	3.49228e-06	8.61652e-06	0.0966757	0.0238215	0.545226	3.48493e-06	2.86088e-05	5.99933e-06	1.819e-05	4.33933e-06	3.83259e-06	6.16203	2.52559	6.65952	22.2869	1.40542e+06	3.429e+06	3.70584e+06	-67.7131	0.0000000E+000	0.0000000E+000	0.0000000E+000	67.7131	0.0000000E+000	0.0000000E+000	0.0000000E+000	-67.7131	0.0000000E+000	0.0000000E+000	0.0000000E+000	-22.2869	0.0000000E+000	0.0000000E+000	0.0000000E+000	22.2869	2.43984	67.7131	-0.000220268
[...]
0.893876	0.360234	0.0152433	0.360557	-2.42302	184.419	-0.000200977	-0.592732	1.16806e+07	20877.3	1	38	0.0050753	0.0140763	0	-0.0305656	0.130632	0.109852	1.33473	1.14949e-06	5.67887e-06	1.30176e-06	2.05769e-06	1.07587e-06	1.48309e-06	0.121182	0.065975	0.443981	5.13496e-06	1.23283e-05	1.78068e-06	1.01582e-05	7.74197e-07	1.29134e-06	2.77101	0.117255	2.77349	2.42302	2.08774e+07	4.93379e+08	4.93821e+08	-87.577	0.0000000E+000	0.0000000E+000	0.0000000E+000	87.577	0.0000000E+000	0.0000000E+000	0.0000000E+000	-87.577	0.0000000E+000	0.0000000E+000	0.0000000E+000	-2.42302	0.0000000E+000	0.0000000E+000	0.0000000E+000	2.42302	23.6323	87.577	-0.00143148
0.281811	0.370875	0.0240762	0.371655	-3.71428	323.646	-0.000200751	-0.608982	2.34571e+07	98439.6	1	38	0.00507464	0.0136542	0	-0.0516158	0.101848	0.0971465	0.76752	1.92274e-06	3.38284e-06	1.20481e-06	2.0596e-06	1.12758e-06	6.03056e-07	0.123991	0.0905435	0.429433	6.6622e-06	9.48543e-06	4.27276e-06	9.94621e-06	3.41197e-06	2.18662e-06	2.68501	0.174304	2.69067	3.71428	9.84396e+07	1.51638e+09	1.51958e+09	-86.2857	0.0000000E+000	0.0000000E+000	0.0000000E+000	86.2857	0.0000000E+000	0.0000000E+000	0.0000000E+000	-86.2857	0.0000000E+000	0.0000000E+000	0.0000000E+000	-3.71428	0.0000000E+000	0.0000000E+000	0.0000000E+000	3.71428	15.4042	86.2857	-0.00186435
0.0888996	0.393955	0.0205638	0.394491	-2.98804	757.97	-0.000243845	-0.660098	8.70596e+07	236565	1	38	0.00507567	0.0128664	0	-0.136493	0.101053	0.100075	0.421104	1.21279e-06	4.20579e-06	1.31885e-06	1.86917e-06	4.48437e-07	7.79943e-07	0.121077	0.0737419	0.282996	4.78373e-06	1.05361e-05	2.37374e-06	9.55153e-06	1.23263e-06	1.08352e-06	2.53147	0.132139	2.53491	2.98804	2.36565e+08	4.53203e+09	4.5382e+09	-87.012	0.0000000E+000	0.0000000E+000	0.0000000E+000	87.012	0.0000000E+000	0.0000000E+000	0.0000000E+000	-87.012	0.0000000E+000	0.0000000E+000	0.0000000E+000	-2.98804	0.0000000E+000	0.0000000E+000	0.0000000E+000	2.98804	19.1577	87.012	-0.0133882
0.0280409	0.406354	0.0158724	0.406664	-2.23686	2128.51	-0.000223011	-0.629224	3.57591e+08	544753	1	38	0.00507519	0.0124801	0	-0.356339	0.124028	0.150006	0.274611	1.91892e-06	4.8134e-06	1.79992e-06	2.6398e-06	7.53842e-07	8.98636e-07	0.146118	0.155953	0.221536	8.16072e-06	9.93689e-06	4.1054e-06	1.10306e-05	1.14945e-06	3.15062e-06	2.45716	0.0959778	2.45903	2.23686	5.44753e+08	1.39464e+10	1.3957e+10	-87.7631	0.0000000E+000	0.0000000E+000	0.0000000E+000	87.7631	0.0000000E+000	0.0000000E+000	0.0000000E+000	-87.7631	0.0000000E+000	0.0000000E+000	0.0000000E+000	-2.23686	0.0000000E+000	0.0000000E+000	0.0000000E+000	2.23686	25.6013	87.7631	-0.0241519
460427	0.0283232	-0.00850297	0.029572	16.7104	2381.56	-0.000104569	-0.414401	-40.6526	-3.36101	2	37	0.000303969	0.010279	0	-0.00147974	-1	-1	-1	0	0	0	0	0	0	-1	-1	-1	0	0	0	0	0	0	32.3878	-9.72322	33.8158	-16.7104	-3361.01	11195.4	11689	-106.71	0.0000000E+000	0.0000000E+000	0.0000000E+000	106.71	0.0000000E+000	0.0000000E+000	0.0000000E+000	-106.71	0.0000000E+000	0.0000000E+000	0.0000000E+000	16.7104	0.0000000E+000	0.0000000E+000	0.0000000E+000	-16.7104	3.33097	73.2896	-0.000140305