Folder: Thesis/Python/Experiments/IRFB/FirstCell/Data (part 4)

File: 240411-EIS-50mM_FeCl2FeCl3-1M_HCl-30mLmin_Dampened-25mHz_20ppd_C15.mpt
EC-Lab ASCII FILE
Nb header lines : 66

Potentio Electrochemical Impedance Spectroscopy

Run on channel : 15 (SN 19485)
User :
Electrode connection : standard
Potential control : Ewe
Ewe ctrl range : min = -1.00 V, max = 1.00 V
Ewe,I filtering : <None>
Safety Limits :
	Do not start on E overload
Channel : Floating
Acquisition started on : 04/11/2024 12:29:34.554
Loaded Setting File :  NONE
Saved on :
	File : 240411-EIS-50mM_FeCl2FeCl3-1M_HCl-30mLmin_Dampened-25mHz_20ppd_C15.mpr
	Directory : C:\Data\mathias\IRFB\
	Host : 192.168.0.1
Device : VMP-300 (SN 0826)
Address : USB
EC-Lab for windows v11.52 (software)
Internet server v11.52 (firmware)
Command interpretor v11.52 (firmware)
Electrode material :
Initial state :
Electrolyte :
Comments :
Cable : special
Electrode surface area : 0.001 cm²
Characteristic mass : 0.001 g
Equivalent Weight : 0.000 g/eq.
Density : 0.000 g/cm3
Volume (V) : 0.001 cm³
Record EIS quality indicators
Cycle Definition : Charge/Discharge alternance
Mode                Single sine
E (V)               0.0000
vs.                 Eoc
tE (h:m:s)          0:00:0.0000
record              0
dI                  0.000
unit dI             mA
dt (s)              0.000
fi                  920.000
unit fi             kHz
ff                  25.000
unit ff             mHz
Nd                  20
Points              per decade
spacing             Logarithmic
Va (mV)             5.0
pw                  0.10
Na                  3
corr                0
E range min (V)     -1.000
E range max (V)     1.000
I Range             Auto
Bandwidth           8
nc cycles           0
goto Ns'            0
nr cycles           0
inc. cycle          0

freq/Hz	Re(Z)/Ohm	-Im(Z)/Ohm	|Z|/Ohm	Phase(Z)/deg	time/s	<Ewe>/V	<I>/mA	Cs/µF	Cp/µF	cycle number	I Range	|Ewe|/V	|I|/A	Ns	(Q-Qo)/mA.h	THD Ewe/%	NSD Ewe/%	NSR Ewe/%	|Ewe h2|/V	|Ewe h3|/V	|Ewe h4|/V	|Ewe h5|/V	|Ewe h6|/V	|Ewe h7|/V	THD I/%	NSD I/%	NSR I/%	|I h2|/A	|I h3|/A	|I h4|/A	|I h5|/A	|I h6|/A	|I h7|/A	Re(Y)/Ohm-1	Im(Y)/Ohm-1	|Y|/Ohm-1	Phase(Y)/deg	Re(C)/nF	Im(C)/nF	|C|/nF	Phase(C)/deg	Re(M)	Im(M)	|M|	Phase(M)/deg	Re(Permittivity)	Im(Permittivity)	|Permittivity|	Phase(Permittivity)/deg	Re(Resistivity)/Ohm.cm	Im(Resistivity)/Ohm.cm	|Resistivity|/Ohm.cm	Phase(Resistivity)/deg	Re(Conductivity)/mS/cm	Im(Conductivity)/mS/cm	|Conductivity|/mS/cm	Phase(Conductivity)/deg	Tan(Delta)	Loss Angle(Delta)/deg	dq/mA.h
920001	-0.132949	0.00464927	0.13303	-177.997	1.97648	-0.000179934	-0.525083	37.2089	0.0454482	1	37	0.000371243	0.00279067	0	-0.000256255	-1	-1	-1	0	0	0	0	0	0	-1	-1	-1	0	0	0	0	0	0	-7.5125	0.262715	7.5171	177.997	45.4482	-1299.62	1300.42	87.9972	0.0000000E+000	0.0000000E+000	0.0000000E+000	-87.9972	0.0000000E+000	0.0000000E+000	0.0000000E+000	87.9972	0.0000000E+000	0.0000000E+000	0.0000000E+000	-177.997	0.0000000E+000	0.0000000E+000	0.0000000E+000	177.997	28.5956	87.9972	-0.000256255
290232	0.0617366	0.0336065	0.0702908	-28.5618	13.4475	-0.000170967	-0.506769	16.3175	3.72994	1	37	0.00156168	0.0222174	0	-0.00189418	-1	-1	-1	0	0	0	0	0	0	-1	-1	-1	0	0	0	0	0	0	12.4953	6.80183	14.2266	28.5618	3729.93	6852.06	7801.48	-61.4382	0.0000000E+000	0.0000000E+000	0.0000000E+000	61.4382	0.0000000E+000	0.0000000E+000	0.0000000E+000	-61.4382	0.0000000E+000	0.0000000E+000	0.0000000E+000	-28.5618	0.0000000E+000	0.0000000E+000	0.0000000E+000	28.5618	1.83704	61.4382	-0.000204279
91560.3	0.0745044	0.0161686	0.0762387	-12.2442	24.7915	-0.000193765	-0.512109	107.508	4.83543	1	37	0.00509821	0.0668718	0	-0.0036649	0.33542	0.154094	6.32665	6.13528e-06	7.71785e-06	4.0224e-06	7.03316e-06	5.09202e-06	8.50801e-06	0.101345	0.0185482	0.292647	1.48679e-05	6.56716e-05	4.81054e-06	2.27197e-06	1.94521e-06	3.81894e-06	12.8183	2.78178	13.1167	12.2442	4835.44	22281.5	22800.2	-77.7558	0.0000000E+000	0.0000000E+000	0.0000000E+000	77.7558	0.0000000E+000	0.0000000E+000	0.0000000E+000	-77.7558	0.0000000E+000	0.0000000E+000	0.0000000E+000	-12.2442	0.0000000E+000	0.0000000E+000	0.0000000E+000	12.2442	4.60796	77.7558	-0.000260808
28884	0.0809142	0.0155584	0.0823964	-10.8841	36.2715	-0.000189832	-0.51384	354.16	12.6273	1	37	0.00509433	0.0618271	0	-0.00503846	0.32883	0.20635	6.29452	5.40001e-06	8.2533e-06	3.27382e-06	7.03662e-06	7.29637e-06	5.55427e-06	0.134274	0.0443631	0.311424	1.77908e-05	8.02521e-05	3.36743e-06	8.40444e-06	4.27772e-06	4.16659e-06	11.9181	2.29164	12.1364	10.8841	12627.3	65670.6	66873.6	-79.1159	0.0000000E+000	0.0000000E+000	0.0000000E+000	79.1159	0.0000000E+000	0.0000000E+000	0.0000000E+000	-79.1159	0.0000000E+000	0.0000000E+000	0.0000000E+000	-10.8841	0.0000000E+000	0.0000000E+000	0.0000000E+000	10.8841	5.20069	79.1159	-0.000156814
9107.2	0.0921075	0.0214773	0.0945783	-13.1255	47.7565	-0.000296941	-0.740079	813.686	41.9596	1	37	0.00517709	0.0547386	0	-0.00637068	0.319314	0.135486	6.30064	6.44106e-06	9.3276e-06	6.12859e-06	6.24933e-06	4.32581e-06	4.95565e-06	0.13347	0.023739	0.352684	9.35507e-06	7.04703e-05	4.74894e-06	1.51303e-05	2.97536e-06	2.9505e-06	10.297	2.40102	10.5732	13.1255	41959.6	179948	184775	-76.8745	0.0000000E+000	0.0000000E+000	0.0000000E+000	76.8745	0.0000000E+000	0.0000000E+000	0.0000000E+000	-76.8745	0.0000000E+000	0.0000000E+000	0.0000000E+000	-13.1255	0.0000000E+000	0.0000000E+000	0.0000000E+000	13.1255	4.28861	76.8745	-0.000218497
2874.08	0.10937	0.0308486	0.113637	-15.7515	60.5758	-0.000289243	-0.701182	1795.09	132.286	1	37	0.00509611	0.0448455	0	-0.00904281	0.33652	0.158196	6.35695	6.12713e-06	7.66705e-06	5.73895e-06	5.39545e-06	7.83585e-06	6.11831e-06	0.0665235	0.107726	0.44478	4.52799e-06	2.70067e-05	3.45039e-06	5.43418e-06	6.23514e-06	6.4975e-06	8.46948	2.38888	8.79994	15.7515	132286	469005	487304	-74.2485	0.0000000E+000	0.0000000E+000	0.0000000E+000	74.2485	0.0000000E+000	0.0000000E+000	0.0000000E+000	-74.2485	0.0000000E+000	0.0000000E+000	0.0000000E+000	-15.7515	0.0000000E+000	0.0000000E+000	0.0000000E+000	15.7515	3.54538	74.2485	-0.000274038
907.034	0.13493	0.0438575	0.141878	-18.0062	73.8593	-0.000292281	-0.712349	4000.86	382.303	1	37	0.00499091	0.0351773	0	-0.0118523	0.335151	0.231928	6.46737	6.88785e-06	7.38988e-06	8.20504e-06	7.31068e-06	3.12417e-06	5.69459e-06	0.0460653	0.0625122	0.55878	7.10048e-06	1.01808e-05	5.23818e-06	6.79368e-06	3.70249e-06	3.68039e-06	6.70308	2.17877	7.04828	18.0062	382303	1.17617e+06	1.23674e+06	-71.9938	0.0000000E+000	0.0000000E+000	0.0000000E+000	71.9938	0.0000000E+000	0.0000000E+000	0.0000000E+000	-71.9938	0.0000000E+000	0.0000000E+000	0.0000000E+000	-18.0062	0.0000000E+000	0.0000000E+000	0.0000000E+000	18.0062	3.07655	71.9938	-0.00026976
286.007	0.169032	0.0619471	0.180026	-20.1269	85.368	-0.000271963	-0.680542	8983.02	1063.64	1	37	0.00539654	0.0299764	0	-0.0140475	0.273857	0.127634	5.98011	5.93327e-06	3.97969e-06	5.9047e-06	6.66245e-06	4.03225e-06	6.58511e-06	0.103435	0.0677653	0.654373	5.4162e-06	2.4491e-05	5.67962e-06	1.56337e-05	4.7741e-06	3.55873e-06	5.21553	1.91139	5.55475	20.1269	1.06364e+06	2.9023e+06	3.09106e+06	-69.8731	0.0000000E+000	0.0000000E+000	0.0000000E+000	69.8731	0.0000000E+000	0.0000000E+000	0.0000000E+000	-69.8731	0.0000000E+000	0.0000000E+000	0.0000000E+000	-20.1269	0.0000000E+000	0.0000000E+000	0.0000000E+000	20.1269	2.72866	69.8731	-0.000200677
[...]
0.893876	0.40014	0.0159096	0.400457	-2.27688	184.037	-0.000249191	-0.629431	1.11914e+07	17664.1	1	38	0.00507246	0.0126667	0	-0.0318275	0.127453	0.0407042	1.2949	2.38603e-06	4.21782e-06	1.28688e-06	2.81585e-06	2.22019e-06	1.19164e-06	0.125086	0.0663439	0.357557	5.02294e-06	1.01228e-05	2.42416e-06	9.28146e-06	2.52857e-06	2.49573e-06	2.49518	0.0992084	2.49715	2.27688	1.76641e+07	4.44267e+08	4.44618e+08	-87.7231	0.0000000E+000	0.0000000E+000	0.0000000E+000	87.7231	0.0000000E+000	0.0000000E+000	0.0000000E+000	-87.7231	0.0000000E+000	0.0000000E+000	0.0000000E+000	-2.27688	0.0000000E+000	0.0000000E+000	0.0000000E+000	2.27688	25.1509	87.7231	-0.000266422
0.281811	0.413171	0.0206041	0.413685	-2.85487	323.261	-0.000282571	-0.684132	2.741e+07	67994.9	1	38	0.00507293	0.0122628	0	-0.0576643	0.122276	0.101455	0.74975	2.65182e-06	4.13542e-06	1.44473e-06	2.20901e-06	2.08771e-06	8.50246e-07	0.130969	0.0479842	0.343855	4.08828e-06	1.0659e-05	1.55888e-06	1.07332e-05	2.18154e-06	1.66773e-06	2.4143	0.120396	2.4173	2.85487	6.79949e+07	1.3635e+09	1.36519e+09	-87.1451	0.0000000E+000	0.0000000E+000	0.0000000E+000	87.1451	0.0000000E+000	0.0000000E+000	0.0000000E+000	-87.1451	0.0000000E+000	0.0000000E+000	0.0000000E+000	-2.85487	0.0000000E+000	0.0000000E+000	0.0000000E+000	2.85487	20.0529	87.1451	-0.00231727
0.0888996	0.429118	0.0144958	0.429363	-1.93474	757.58	-0.000249505	-0.627168	1.23503e+08	140771	1	38	0.00507231	0.0118136	0	-0.139158	0.100644	0.140858	0.423248	2.55696e-06	3.56792e-06	4.95529e-07	1.96287e-06	9.98916e-07	8.06405e-07	0.134633	0.150657	0.256959	6.64196e-06	9.33555e-06	3.40187e-06	9.15662e-06	2.46357e-06	3.13686e-06	2.3277	0.078631	2.32903	1.93474	1.40771e+08	4.16724e+09	4.16961e+09	-88.0653	0.0000000E+000	0.0000000E+000	0.0000000E+000	88.0653	0.0000000E+000	0.0000000E+000	0.0000000E+000	-88.0653	0.0000000E+000	0.0000000E+000	0.0000000E+000	-1.93474	0.0000000E+000	0.0000000E+000	0.0000000E+000	1.93474	29.6029	88.0653	-0.0167266
0.0280409	0.428865	0.0103046	0.428989	-1.37641	2128.12	-0.000241621	-0.613122	5.50806e+08	317810	1	38	0.00507228	0.0118238	0	-0.38502	0.118151	0.0885224	0.266683	1.61908e-06	4.99713e-06	1.3354e-06	1.67873e-06	1.17512e-06	1.05333e-06	0.147776	0.154604	0.192122	9.32897e-06	9.64655e-06	4.95603e-06	7.65268e-06	4.6546e-06	1.46077e-06	2.33039	0.0559936	2.33106	1.37641	3.1781e+08	1.32269e+10	1.32307e+10	-88.6236	0.0000000E+000	0.0000000E+000	0.0000000E+000	88.6236	0.0000000E+000	0.0000000E+000	0.0000000E+000	-88.6236	0.0000000E+000	0.0000000E+000	0.0000000E+000	-1.37641	0.0000000E+000	0.0000000E+000	0.0000000E+000	1.37641	41.6189	88.6236	-0.0324098
0.0250094	0.428789	0.0101087	0.428908	-1.35049	2372.58	-0.000253644	-0.645389	6.29539e+08	349689	1	38	0.00507178	0.0118249	0	-0.415751	0.107714	0.0901047	0.265892	2.12648e-06	4.46795e-06	1.15749e-06	1.60098e-06	9.12388e-07	4.7724e-07	0.157229	0.154473	0.195752	5.26995e-06	1.40939e-05	3.41186e-06	9.08044e-06	1.88122e-06	3.56292e-06	2.33086	0.0549498	2.3315	1.35049	3.49689e+08	1.48331e+10	1.48372e+10	-88.6495	0.0000000E+000	0.0000000E+000	0.0000000E+000	88.6495	0.0000000E+000	0.0000000E+000	0.0000000E+000	-88.6495	0.0000000E+000	0.0000000E+000	0.0000000E+000	-1.35049	0.0000000E+000	0.0000000E+000	0.0000000E+000	1.35049	42.4179	88.6495	-0.0307314

File: 240415-EIS-50mM_FeCl2FeCl3-1M_HCl-40mLmin_Dampened-25mHz_20ppd_C15.mpt
EC-Lab ASCII FILE
Nb header lines : 66

Potentio Electrochemical Impedance Spectroscopy

Run on channel : 15 (SN 19485)
User :
Electrode connection : standard
Potential control : Ewe
Ewe ctrl range : min = -1.00 V, max = 1.00 V
Ewe,I filtering : <None>
Safety Limits :
	Do not start on E overload
Channel : Floating
Acquisition started on : 04/15/2024 10:35:43.840
Loaded Setting File :  NONE
Saved on :
	File : 240415-EIS-50mM_FeCl2FeCl3-1M_HCl-40mLmin_Dampened-25mHz_20ppd_C15.mpr
	Directory : C:\Data\mathias\IRFB\
	Host : 192.168.0.1
Device : VMP-300 (SN 0826)
Address : USB
EC-Lab for windows v11.52 (software)
Internet server v11.52 (firmware)
Command interpretor v11.52 (firmware)
Electrode material :
Initial state :
Electrolyte :
Comments :
Cable : special
Electrode surface area : 0.001 cm²
Characteristic mass : 0.001 g
Equivalent Weight : 0.000 g/eq.
Density : 0.000 g/cm3
Volume (V) : 0.001 cm³
Record EIS quality indicators
Cycle Definition : Charge/Discharge alternance
Mode                Single sine
E (V)               0.0000
vs.                 Eoc
tE (h:m:s)          0:00:0.0000
record              0
dI                  0.000
unit dI             mA
dt (s)              0.000
fi                  920.000
unit fi             kHz
ff                  25.000
unit ff             mHz
Nd                  20
Points              per decade
spacing             Logarithmic
Va (mV)             5.0
pw                  0.10
Na                  3
corr                0
E range min (V)     -1.000
E range max (V)     1.000
I Range             Auto
Bandwidth           8
nc cycles           0
goto Ns'            0
nr cycles           0
inc. cycle          1

freq/Hz	Re(Z)/Ohm	-Im(Z)/Ohm	|Z|/Ohm	Phase(Z)/deg	time/s	<Ewe>/V	<I>/mA	Cs/µF	Cp/µF	cycle number	I Range	|Ewe|/V	|I|/A	Ns	(Q-Qo)/mA.h	THD Ewe/%	NSD Ewe/%	NSR Ewe/%	|Ewe h2|/V	|Ewe h3|/V	|Ewe h4|/V	|Ewe h5|/V	|Ewe h6|/V	|Ewe h7|/V	THD I/%	NSD I/%	NSR I/%	|I h2|/A	|I h3|/A	|I h4|/A	|I h5|/A	|I h6|/A	|I h7|/A	Re(Y)/Ohm-1	Im(Y)/Ohm-1	|Y|/Ohm-1	Phase(Y)/deg	Re(C)/nF	Im(C)/nF	|C|/nF	Phase(C)/deg	Re(M)	Im(M)	|M|	Phase(M)/deg	Re(Permittivity)	Im(Permittivity)	|Permittivity|	Phase(Permittivity)/deg	Re(Resistivity)/Ohm.cm	Im(Resistivity)/Ohm.cm	|Resistivity|/Ohm.cm	Phase(Resistivity)/deg	Re(Conductivity)/mS/cm	Im(Conductivity)/mS/cm	|Conductivity|/mS/cm	Phase(Conductivity)/deg	Tan(Delta)	Loss Angle(Delta)/deg	dq/mA.h
920001	-0.128795	0.0138334	0.129535	-173.87	2.1675	-2.6763e-05	-0.0425856	12.5055	0.142622	1	37	0.00035826	0.00276573	0	-2.17145e-05	-1	-1	-1	0	0	0	0	0	0	-1	-1	-1	0	0	0	0	0	0	-7.67576	0.82443	7.7199	173.87	142.622	-1327.86	1335.5	83.8695	0.0000000E+000	0.0000000E+000	0.0000000E+000	-83.8695	0.0000000E+000	0.0000000E+000	0.0000000E+000	83.8695	0.0000000E+000	0.0000000E+000	0.0000000E+000	-173.87	0.0000000E+000	0.0000000E+000	0.0000000E+000	173.87	9.31039	83.8695	-2.17145e-05
290232	0.0647767	0.035565	0.0738978	-28.7685	13.6375	-2.06674e-05	-0.0245879	15.4189	3.57137	1	37	0.00164575	0.0222706	0	-0.000156946	-1	-1	-1	0	0	0	0	0	0	-1	-1	-1	0	0	0	0	0	0	11.8619	6.51267	13.5322	28.7685	3571.37	6504.75	7420.68	-61.2315	0.0000000E+000	0.0000000E+000	0.0000000E+000	61.2315	0.0000000E+000	0.0000000E+000	0.0000000E+000	-61.2315	0.0000000E+000	0.0000000E+000	0.0000000E+000	-28.7685	0.0000000E+000	0.0000000E+000	0.0000000E+000	28.7685	1.82136	61.2315	-1.52167e-05
91560.3	0.0777437	0.016818	0.079542	-12.2065	24.9815	-2.79186e-05	-0.0167329	103.357	4.62055	1	37	0.00511671	0.0643272	0	3.07621e-06	0.333828	0.226976	6.25692	4.9355e-06	6.03674e-06	5.77411e-06	6.40407e-06	6.8334e-06	8.42978e-06	0.102263	0.019583	0.297391	1.35616e-05	6.39252e-05	4.14546e-06	3.11837e-06	3.75557e-06	3.02067e-06	12.2877	2.65816	12.572	12.2065	4620.55	21359.2	21853.3	-77.7935	0.0000000E+000	0.0000000E+000	0.0000000E+000	77.7935	0.0000000E+000	0.0000000E+000	0.0000000E+000	-77.7935	0.0000000E+000	0.0000000E+000	0.0000000E+000	-12.2065	0.0000000E+000	0.0000000E+000	0.0000000E+000	12.2065	4.62265	77.7935	0.000108541
28884	0.0845326	0.0159799	0.0860298	-10.7048	36.4605	-3.78914e-05	-0.0463438	344.818	11.897	1	37	0.0051001	0.059283	0	0.000181856	0.297024	0.2158	6.32022	5.69703e-06	5.27616e-06	5.20574e-06	6.24682e-06	8.07589e-06	3.86826e-06	0.124674	0.0445409	0.326774	1.2741e-05	7.19937e-05	3.52656e-06	7.40458e-06	5.35546e-06	4.65116e-06	11.4216	2.15911	11.6239	10.7048	11897	62934.7	64049.3	-79.2952	0.0000000E+000	0.0000000E+000	0.0000000E+000	79.2952	0.0000000E+000	0.0000000E+000	0.0000000E+000	-79.2952	0.0000000E+000	0.0000000E+000	0.0000000E+000	-10.7048	0.0000000E+000	0.0000000E+000	0.0000000E+000	10.7048	5.28995	79.2952	6.32367e-06
9107.2	0.0957366	0.0216217	0.0981478	-12.7265	47.9455	-0.000151842	-0.278594	808.251	39.2251	1	37	0.00517926	0.05277	0	3.62541e-05	0.277598	0.191613	6.18212	7.08702e-06	7.46001e-06	3.12427e-06	4.57507e-06	4.83786e-06	4.68e-06	0.121827	0.0218615	0.366272	4.51742e-06	6.30669e-05	3.64854e-06	9.89998e-06	3.49534e-06	2.51849e-06	9.93841	2.24455	10.1887	12.7265	39225.1	173681	178055	-77.2735	0.0000000E+000	0.0000000E+000	0.0000000E+000	77.2735	0.0000000E+000	0.0000000E+000	0.0000000E+000	-77.2735	0.0000000E+000	0.0000000E+000	0.0000000E+000	-12.7265	0.0000000E+000	0.0000000E+000	0.0000000E+000	12.7265	4.4278	77.2735	-7.60155e-05
2874.08	0.113036	0.0312565	0.117278	-15.4571	60.7678	-0.000151059	-0.279748	1771.66	125.843	1	37	0.0051088	0.0435616	0	-0.000932256	0.307069	0.27088	6.24664	6.30205e-06	4.33993e-06	3.31077e-06	6.04095e-06	1.01792e-05	3.39283e-06	0.0546351	0.0909208	0.450552	3.69503e-06	2.04397e-05	4.43466e-06	7.2145e-06	4.32959e-06	4.52544e-06	8.21836	2.27253	8.52677	15.4571	125843	455099	472177	-74.5429	0.0000000E+000	0.0000000E+000	0.0000000E+000	74.5429	0.0000000E+000	0.0000000E+000	0.0000000E+000	-74.5429	0.0000000E+000	0.0000000E+000	0.0000000E+000	-15.4571	0.0000000E+000	0.0000000E+000	0.0000000E+000	15.4571	3.61639	74.5429	-2.75078e-05
907.034	0.138625	0.0447686	0.145675	-17.8977	73.8283	-0.000151059	-0.270796	3919.43	370.169	1	37	0.00544168	0.037355	0	-0.00173473	0.315163	0.160801	6.05175	9.88323e-06	4.36727e-06	2.75408e-06	5.24214e-06	8.36515e-06	7.42429e-06	0.0445838	0.0797443	0.524037	3.67674e-06	8.74346e-06	6.76002e-06	8.32651e-06	5.79686e-06	3.69592e-06	6.5324	2.10962	6.8646	17.8977	370169	1.14622e+06	1.20451e+06	-72.1023	0.0000000E+000	0.0000000E+000	0.0000000E+000	72.1023	0.0000000E+000	0.0000000E+000	0.0000000E+000	-72.1023	0.0000000E+000	0.0000000E+000	0.0000000E+000	-17.8977	0.0000000E+000	0.0000000E+000	0.0000000E+000	17.8977	3.09649	72.1023	-5.02135e-05
286.007	0.172435	0.0648265	0.184218	-20.6036	85.562	-0.000118717	-0.222463	8584.03	1063	1	37	0.00507258	0.0275357	0	-0.00255885	0.362537	0.148639	6.37466	5.92088e-06	1.13453e-05	7.74186e-06	6.5071e-06	5.21221e-06	4.13166e-06	0.112915	0.119842	0.718585	6.86162e-06	2.47971e-05	4.09659e-06	1.41342e-05	6.46634e-06	3.12311e-06	5.08114	1.91024	5.42835	20.6036	1.063e+06	2.82751e+06	3.02073e+06	-69.3964	0.0000000E+000	0.0000000E+000	0.0000000E+000	69.3964	0.0000000E+000	0.0000000E+000	0.0000000E+000	-69.3964	0.0000000E+000	0.0000000E+000	0.0000000E+000	-20.6036	0.0000000E+000	0.0000000E+000	0.0000000E+000	20.6036	2.65995	69.3964	-7.97195e-05
[...]
0.893876	0.451487	0.0203037	0.451943	-2.5749	184.098	-0.000128232	-0.223456	8.76936e+06	17699.1	1	38	0.00476413	0.0105414	0	-0.00883397	0.132688	0.0851554	1.37604	2.67549e-06	3.91232e-06	1.92946e-06	2.45904e-06	1.15053e-06	1.78491e-06	0.149809	0.117067	0.415377	7.28012e-06	9.30818e-06	2.85403e-06	9.30175e-06	1.5966e-06	1.48699e-06	2.21044	0.0994049	2.21267	2.5749	1.76991e+07	3.93569e+08	3.93967e+08	-87.4251	0.0000000E+000	0.0000000E+000	0.0000000E+000	87.4251	0.0000000E+000	0.0000000E+000	0.0000000E+000	-87.4251	0.0000000E+000	0.0000000E+000	0.0000000E+000	-2.5749	0.0000000E+000	0.0000000E+000	0.0000000E+000	2.5749	22.2367	87.4251	-0.000926898
0.281811	0.465713	0.0203406	0.466157	-2.50087	323.324	-0.000110662	-0.231917	2.77651e+07	52864	1	38	0.00476169	0.0102148	0	-0.0166028	0.102459	0.109515	0.800454	1.34721e-06	3.31796e-06	1.25639e-06	2.08234e-06	8.83218e-07	1.67476e-06	0.139458	0.0851882	0.383806	4.78021e-06	1.02966e-05	2.03238e-06	7.13526e-06	2.11297e-06	2.04122e-06	2.14316	0.0936047	2.1452	2.50087	5.28641e+07	1.21036e+09	1.21152e+09	-87.4991	0.0000000E+000	0.0000000E+000	0.0000000E+000	87.4991	0.0000000E+000	0.0000000E+000	0.0000000E+000	-87.4991	0.0000000E+000	0.0000000E+000	0.0000000E+000	-2.50087	0.0000000E+000	0.0000000E+000	0.0000000E+000	2.50087	22.8958	87.4991	-0.000427454
0.0888996	0.47526	0.015968	0.475528	-1.92432	757.645	-0.00013301	-0.248556	1.12117e+08	126420	1	38	0.00476261	0.0100154	0	-0.0503817	0.0913491	0.126533	0.440961	1.46396e-06	2.79211e-06	1.35361e-06	1.82828e-06	8.31875e-07	1.13102e-06	0.154378	0.110936	0.260769	6.36059e-06	1.04227e-05	2.58073e-06	8.06813e-06	2.545e-06	1.56053e-06	2.10174	0.0706149	2.10292	1.92432	1.2642e+08	3.76269e+09	3.76482e+09	-88.0757	0.0000000E+000	0.0000000E+000	0.0000000E+000	88.0757	0.0000000E+000	0.0000000E+000	0.0000000E+000	-88.0757	0.0000000E+000	0.0000000E+000	0.0000000E+000	-1.92432	0.0000000E+000	0.0000000E+000	0.0000000E+000	1.92432	29.7634	88.0757	-0.00414476
0.0280409	0.478818	0.0139446	0.479021	-1.66815	2128.18	-0.000114381	-0.265813	4.07026e+08	344926	1	38	0.00476336	0.00994394	0	-0.125845	0.111523	0.142315	0.287852	1.76858e-06	4.11978e-06	1.68089e-06	1.79362e-06	8.20937e-07	7.35481e-07	0.149111	0.229131	0.208157	5.41722e-06	9.80077e-06	4.74572e-06	5.8117e-06	1.69371e-06	4.14476e-06	2.08671	0.0607711	2.08759	1.66815	3.44926e+08	1.18438e+10	1.18488e+10	-88.3318	0.0000000E+000	0.0000000E+000	0.0000000E+000	88.3318	0.0000000E+000	0.0000000E+000	0.0000000E+000	-88.3318	0.0000000E+000	0.0000000E+000	0.0000000E+000	-1.66815	0.0000000E+000	0.0000000E+000	0.0000000E+000	1.66815	34.3371	88.3318	-0.00559514
0.0250094	0.479475	0.0134479	0.479663	-1.60656	2372.64	-0.000121732	-0.280311	4.73219e+08	371961	1	38	0.00475716	0.00991772	0	-0.138258	0.0997792	0.0960297	0.287075	1.84875e-06	3.04541e-06	7.57621e-07	1.94051e-06	1.26134e-06	1.33424e-06	0.140258	0.0930482	0.230092	3.53346e-06	7.62435e-06	3.05838e-06	8.75463e-06	3.06685e-06	2.67899e-06	2.08398	0.0584496	2.0848	1.60656	3.71961e+08	1.3262e+10	1.32672e+10	-88.3934	0.0000000E+000	0.0000000E+000	0.0000000E+000	88.3934	0.0000000E+000	0.0000000E+000	0.0000000E+000	-88.3934	0.0000000E+000	0.0000000E+000	0.0000000E+000	-1.60656	0.0000000E+000	0.0000000E+000	0.0000000E+000	1.60656	35.6543	88.3934	-0.0124134