Folder: Thesis/Python/Experiments/Baichen/Data

File: SGL 2.5EA carbon felt_ve=2 cms.mpt
EC-Lab ASCII FILE
Nb header lines : 79

Potentio Electrochemical Impedance Spectroscopy

Run on channel : 1 (SN 5680)
User :
Electrode connection : standard
Potential control : Ewe
Ewe ctrl range : min = 0.00 V, max = 5.00 V
Ewe,I filtering : 50 kHz
Safety Limits :
	Do not start on E overload
Channel : Floating
Acquisition started on : 01/21/2022 12:10:31.015
Loaded Setting File :  C:\Data\baili\Compression Ratio Tests\final\SGL 2.5 Felt ve=2\EIS_fullcell_CR20_flowthrough_C01.mpr
Saved on :
	File : EIS_fullcell_CR30_flowthrough_C01.mpr
	Directory : C:\Data\baili\Compression Ratio Tests\final\SGL 2.5 Felt ve=2\
	Host : 192.168.0.1
Device : SP-300 (SN 0955)
Address : 192.168.0.4
EC-Lab for windows v11.36 (software)
Internet server v11.36 (firmware)
Command interpretor v11.36 (firmware)
Electrode material :
Initial state :
Electrolyte :
Comments :
Current amplifier : B-10A5V
Cable : standard
Electrode surface area : 0.001 cm²
Characteristic mass : 0.001 g
Equivalent Weight : 0.000 g/eq.
Density : 0.000 g/cm3
Volume (V) : 0.000 m³
Record Power
Cycle Definition : Charge/Discharge alternance
External device configuration :
   device type : Other
   device name : Other
   Analog OUT :
      mode : E/V
      unit : speed/rpm
      max : 150.000 at 5.000 V
      min : 0.000 at 0.000 V
      current : 32.000
Mode                Single sine
E (V)               0.0000
vs.                 Eoc
tE (h:m:s)          0:00:0.0000
record              0
dI                  0.000
unit dI             mA
dt (s)              0.000
fi                  200.000
unit fi             kHz
ff                  30.000
unit ff             mHz
Nd                  12
Points              per decade
spacing             Logarithmic
Va (mV)             10.0
pw                  0.10
Na                  3
corr                0
E range min (V)     0.000
E range max (V)     5.000
I Range             Auto
Bandwidth           8
nc cycles           3
goto Ns'            0
nr cycles           0
inc. cycle          0

Modify on : 01/21/2022 12:13
nc cycles           4

freq/Hz	Re(Z)/Ohm	-Im(Z)/Ohm	|Z|/Ohm	Phase(Z)/deg	time/s	<Ewe>/V	<I>/mA	Cs/µF	Cp/µF	cycle number	I Range	|Ewe|/V	|I|/A	Ns	(Q-Qo)/mA.h	Analog OUT/V	P/W	Re(Y)/Ohm-1	Im(Y)/Ohm-1	|Y|/Ohm-1	Phase(Y)/deg	Re(C)/nF	Im(C)/nF	|C|/nF	Phase(C)/deg	Re(M)	Im(M)	|M|	Phase(M)/deg	Re(Permittivity)	Im(Permittivity)	|Permittivity|	Phase(Permittivity)/deg	Re(Resistivity)/Ohm.cm	Im(Resistivity)/Ohm.cm	|Resistivity|/Ohm.cm	Phase(Resistivity)/deg	Re(Conductivity)/mS/cm	Im(Conductivity)/mS/cm	|Conductivity|/mS/cm	Phase(Conductivity)/deg	Tan(Delta)	Loss Angle(Delta)/deg	dq/mA.h
199998	0.0794829	-0.0232711	0.0828196	16.319	1.78349	1.38988	-13.6449	-34.1962	-2.69988	1	65	0.00958679	0.115755	0	-0.00256658	32	-0.0189647	11.588	-3.39274	12.0744	-16.319	-2699.88	9221.51	9608.63	-106.319	0.0000000E+000	0.0000000E+000	0.0000000E+000	106.319	0.0000000E+000	0.0000000E+000	0.0000000E+000	-106.319	0.0000000E+000	0.0000000E+000	0.0000000E+000	16.319	0.0000000E+000	0.0000000E+000	0.0000000E+000	-16.319	3.41552	73.681	-0.00256658
10902.2	0.0979164	0.0134045	0.0988296	-7.79517	10.3775	1.38986	4.094	1089.07	20.0346	1	65	0.0102567	0.103782	0	0.00763039	32	0.00569007	10.0249	1.37238	10.1184	7.79517	20034.6	146348	147712	-82.2048	0.0000000E+000	0.0000000E+000	0.0000000E+000	82.2048	0.0000000E+000	0.0000000E+000	0.0000000E+000	-82.2048	0.0000000E+000	0.0000000E+000	0.0000000E+000	-7.79517	0.0000000E+000	0.0000000E+000	0.0000000E+000	7.79517	7.30475	82.2048	0.00165083
593.67	0.134005	0.0142099	0.134756	-6.05304	21.4522	1.38975	3.48436	18866.2	209.783	1	65	0.0105515	0.078301	0	0.0192467	32	0.00484238	7.37945	0.782519	7.42082	6.05304	209783	1.97833e+06	1.98942e+06	-83.947	0.0000000E+000	0.0000000E+000	0.0000000E+000	83.947	0.0000000E+000	0.0000000E+000	0.0000000E+000	-83.947	0.0000000E+000	0.0000000E+000	0.0000000E+000	-6.05304	0.0000000E+000	0.0000000E+000	0.0000000E+000	6.05304	9.43038	83.947	0.000742126
32.3499	0.145094	0.00254283	0.145116	-1.00403	31.8452	1.38974	3.63397	1.93478e+06	594.065	1	65	0.0104996	0.0723533	0	0.0297477	32	0.00505027	6.88999	0.12075	6.89105	1.00403	594064	3.38973e+07	3.39025e+07	-88.996	0.0000000E+000	0.0000000E+000	0.0000000E+000	88.996	0.0000000E+000	0.0000000E+000	0.0000000E+000	-88.996	0.0000000E+000	0.0000000E+000	0.0000000E+000	-1.00403	0.0000000E+000	0.0000000E+000	0.0000000E+000	1.00403	57.06	88.996	0.000750165
1.76354	0.148732	0.000882208	0.148734	-0.339848	45.3511	1.38975	3.79686	1.02297e+08	3598.99	1	37	0.0105097	0.0706607	0	0.0411592	32	0.00527668	6.72327	0.0398793	6.72339	0.339848	3.59903e+06	6.06756e+08	6.06767e+08	-89.6601	0.0000000E+000	0.0000000E+000	0.0000000E+000	89.6601	0.0000000E+000	0.0000000E+000	0.0000000E+000	-89.6601	0.0000000E+000	0.0000000E+000	0.0000000E+000	-0.339848	0.0000000E+000	0.0000000E+000	0.0000000E+000	0.339848	168.59	89.6601	-5.11194e-05
0.0960805	0.149843	0.00108525	0.149847	-0.414961	219.348	1.38974	6.73014	1.52635e+09	80060.4	1	37	0.0105013	0.07008	0	0.268472	32	0.00935315	6.67329	0.0483318	6.67346	0.414961	8.00606e+07	1.10541e+10	1.10544e+10	-89.585	0.0000000E+000	0.0000000E+000	0.0000000E+000	89.585	0.0000000E+000	0.0000000E+000	0.0000000E+000	-89.585	0.0000000E+000	0.0000000E+000	0.0000000E+000	-0.414961	0.0000000E+000	0.0000000E+000	0.0000000E+000	0.414961	138.073	89.585	0.0478976
42374.9	0.0829587	0.00267307	0.0830018	-1.84553	628.58	1.38989	13.0232	1405.08	1.45729	2	65	0.0105305	0.12687	0	1.43313	32	0.0181007	12.0417	0.388003	12.0479	1.84553	1457.29	45227.1	45250.5	-88.1545	0.0000000E+000	0.0000000E+000	0.0000000E+000	88.1545	0.0000000E+000	0.0000000E+000	0.0000000E+000	-88.1545	0.0000000E+000	0.0000000E+000	0.0000000E+000	-1.84553	0.0000000E+000	0.0000000E+000	0.0000000E+000	1.84553	31.035	88.1545	0.00239177
2309.26	0.110487	0.0174177	0.111852	-8.95864	638.166	1.38975	12.3131	3956.9	95.9516	2	65	0.0107056	0.0957124	0	1.46873	32	0.0171121	8.83134	1.39221	8.9404	8.95864	95951.6	608658	616175	-81.0414	0.0000000E+000	0.0000000E+000	0.0000000E+000	81.0414	0.0000000E+000	0.0000000E+000	0.0000000E+000	-81.0414	0.0000000E+000	0.0000000E+000	0.0000000E+000	-8.95864	0.0000000E+000	0.0000000E+000	0.0000000E+000	8.95864	6.34339	81.0414	0.00282467
125.764	0.136535	0.00577831	0.136658	-2.42336	648.535	1.38975	12.5784	219009	391.557	2	65	0.0105805	0.0774231	0	1.50463	32	0.0174809	7.31101	0.309409	7.31756	2.42336	391557	9.2521e+06	9.26038e+06	-87.5766	0.0000000E+000	0.0000000E+000	0.0000000E+000	87.5766	0.0000000E+000	0.0000000E+000	0.0000000E+000	-87.5766	0.0000000E+000	0.0000000E+000	0.0000000E+000	-2.42336	0.0000000E+000	0.0000000E+000	0.0000000E+000	2.42336	23.629	87.5766	0.00255919
6.85307	0.142106	0.00124366	0.142111	-0.501422	659.002	1.38974	12.7463	1.86738e+07	1430.15	2	37	0.0105765	0.0744243	0	1.54036	32	0.017714	7.03648	0.061581	7.03675	0.501422	1.43014e+06	1.63414e+08	1.63421e+08	-89.4986	0.0000000E+000	0.0000000E+000	0.0000000E+000	89.4986	0.0000000E+000	0.0000000E+000	0.0000000E+000	-89.4986	0.0000000E+000	0.0000000E+000	0.0000000E+000	-0.501422	0.0000000E+000	0.0000000E+000	0.0000000E+000	0.501422	114.264	89.4986	0.00213571
0.373732	0.143823	0.00196982	0.143837	-0.78468	704.458	1.38973	13.1281	2.16189e+08	40545.7	2	37	0.0105783	0.0735437	0	1.69448	32	0.0182446	6.95166	0.0952107	6.95232	0.78468	4.05459e+07	2.96039e+09	2.96066e+09	-89.2153	0.0000000E+000	0.0000000E+000	0.0000000E+000	89.2153	0.0000000E+000	0.0000000E+000	0.0000000E+000	-89.2153	0.0000000E+000	0.0000000E+000	0.0000000E+000	-0.78468	0.0000000E+000	0.0000000E+000	0.0000000E+000	0.78468	73.0135	89.2153	0.0272652
164731	0.0748261	-0.0180882	0.0769813	13.5898	1246.09	1.38984	19.0953	-53.4135	-2.94897	3	65	0.0104146	0.135287	0	4.18972	32	0.0265395	12.6265	-3.05228	12.9902	-13.5898	-2948.97	12199.1	12550.5	-103.59	0.0000000E+000	0.0000000E+000	0.0000000E+000	103.59	0.0000000E+000	0.0000000E+000	0.0000000E+000	-103.59	0.0000000E+000	0.0000000E+000	0.0000000E+000	13.5898	0.0000000E+000	0.0000000E+000	0.0000000E+000	-13.5898	4.13674	76.4102	0.00327015
8974.76	0.0921159	0.0131231	0.093046	-8.10796	1254.71	1.38975	18.1332	1351.33	26.8805	3	65	0.0103493	0.111228	0	4.23997	32	0.0252005	10.6399	1.5158	10.7474	8.10796	26880.5	188685	190590	-81.892	0.0000000E+000	0.0000000E+000	0.0000000E+000	81.892	0.0000000E+000	0.0000000E+000	0.0000000E+000	-81.892	0.0000000E+000	0.0000000E+000	0.0000000E+000	-8.10796	0.0000000E+000	0.0000000E+000	0.0000000E+000	8.10796	7.01938	81.892	0.00264252
489.217	0.126562	0.0127378	0.127202	-5.74714	1265.21	1.38976	18.5313	25540.2	256.11	3	65	0.0105746	0.0831321	0	4.29347	32	0.025754	7.822	0.787241	7.86152	5.74714	256110	2.5447e+06	2.55756e+06	-84.2529	0.0000000E+000	0.0000000E+000	0.0000000E+000	84.2529	0.0000000E+000	0.0000000E+000	0.0000000E+000	-84.2529	0.0000000E+000	0.0000000E+000	0.0000000E+000	-5.74714	0.0000000E+000	0.0000000E+000	0.0000000E+000	5.74714	9.93598	84.2529	0.00366757
26.6457	0.135997	0.00203918	0.136012	-0.859049	1275.56	1.38975	18.3852	2.92913e+06	658.409	3	65	0.010545	0.0775302	0	4.34632	32	0.0255508	7.35147	0.110231	7.3523	0.859049	658408	4.39105e+07	4.39154e+07	-89.141	0.0000000E+000	0.0000000E+000	0.0000000E+000	89.141	0.0000000E+000	0.0000000E+000	0.0000000E+000	-89.141	0.0000000E+000	0.0000000E+000	0.0000000E+000	-0.859049	0.0000000E+000	0.0000000E+000	0.0000000E+000	0.859049	66.6918	89.141	0.0035475
1.4516	0.139656	0.000945706	0.139659	-0.387982	1290.6	1.38974	18.4583	1.15936e+08	5316.06	3	37	0.0105441	0.0754988	0	4.42581	32	0.0256522	7.16011	0.0484859	7.16028	0.387982	5.3161e+06	7.85044e+08	7.85062e+08	-89.612	0.0000000E+000	0.0000000E+000	0.0000000E+000	89.612	0.0000000E+000	0.0000000E+000	0.0000000E+000	-89.612	0.0000000E+000	0.0000000E+000	0.0000000E+000	-0.387982	0.0000000E+000	0.0000000E+000	0.0000000E+000	0.387982	147.674	89.612	0.0123305
0.0791155	0.142466	0.000984586	0.14247	-0.395965	1501.66	1.38974	20.0199	2.04317e+09	97581.3	3	37	0.0105469	0.0740288	0	5.59731	32	0.0278225	7.01886	0.0485074	7.01903	0.395965	9.75814e+07	1.41197e+10	1.412e+10	-89.604	0.0000000E+000	0.0000000E+000	0.0000000E+000	89.604	0.0000000E+000	0.0000000E+000	0.0000000E+000	-89.604	0.0000000E+000	0.0000000E+000	0.0000000E+000	-0.395965	0.0000000E+000	0.0000000E+000	0.0000000E+000	0.395965	144.697	89.604	0.226773
34896.4	0.0808314	0.00414675	0.0809377	-2.93677	1872.34	1.38986	23.624	1099.84	2.88699	4	65	0.0105151	0.129916	0	7.65342	32	0.032834	12.339	0.633004	12.3552	2.93677	2886.99	56275.3	56349.3	-87.0632	0.0000000E+000	0.0000000E+000	0.0000000E+000	87.0632	0.0000000E+000	0.0000000E+000	0.0000000E+000	-87.0632	0.0000000E+000	0.0000000E+000	0.0000000E+000	-2.93677	0.0000000E+000	0.0000000E+000	0.0000000E+000	2.93677	19.4927	87.0632	0.00447183
1901.83	0.108816	0.0172309	0.110172	-8.99802	1882.24	1.38974	22.6071	4856.69	118.8	4	65	0.0104716	0.0950477	0	7.71732	32	0.031418	8.96501	1.4196	9.07671	8.99802	118800	750240	759587	-81.002	0.0000000E+000	0.0000000E+000	0.0000000E+000	81.002	0.0000000E+000	0.0000000E+000	0.0000000E+000	-81.002	0.0000000E+000	0.0000000E+000	0.0000000E+000	-8.99802	0.0000000E+000	0.0000000E+000	0.0000000E+000	8.99802	6.31517	81.002	0.00462211
103.641	0.132682	0.00506835	0.132779	-2.18759	1892.62	1.38973	22.5989	302987	441.467	4	65	0.0103483	0.0779361	0	7.78341	32	0.0314062	7.52582	0.28748	7.53131	2.18759	441468	1.1557e+07	1.15654e+07	-87.8124	0.0000000E+000	0.0000000E+000	0.0000000E+000	87.8124	0.0000000E+000	0.0000000E+000	0.0000000E+000	-87.8124	0.0000000E+000	0.0000000E+000	0.0000000E+000	-2.18759	0.0000000E+000	0.0000000E+000	0.0000000E+000	2.18759	26.1786	87.8124	0.00459339
5.64487	0.137769	0.0010725	0.137773	-0.446023	1902.97	1.38974	22.6116	2.62887e+07	1593.06	4	37	0.0103491	0.0751167	0	7.84947	32	0.0314241	7.25807	0.0565022	7.25829	0.446023	1.59305e+06	2.04638e+08	2.04645e+08	-89.554	0.0000000E+000	0.0000000E+000	0.0000000E+000	89.554	0.0000000E+000	0.0000000E+000	0.0000000E+000	-89.554	0.0000000E+000	0.0000000E+000	0.0000000E+000	-0.446023	0.0000000E+000	0.0000000E+000	0.0000000E+000	0.446023	128.457	89.554	0.00487808
0.307821	0.139819	0.00195367	0.139832	-0.800537	1957.94	1.38974	22.7872	2.64648e+08	51660.5	4	37	0.0103514	0.0740275	0	8.19267	32	0.0316683	7.15073	0.0999165	7.15142	0.800537	5.16605e+07	3.69719e+09	3.69755e+09	-89.1995	0.0000000E+000	0.0000000E+000	0.0000000E+000	89.1995	0.0000000E+000	0.0000000E+000	0.0000000E+000	-89.1995	0.0000000E+000	0.0000000E+000	0.0000000E+000	-0.800537	0.0000000E+000	0.0000000E+000	0.0000000E+000	0.800537	71.567	89.1995	0.0573151
0.253521	0.140215	0.00181522	0.140226	-0.741709	1970.23	1.38974	22.8458	3.45842e+08	57952.9	4	37	0.0103539	0.0738371	0	8.26192	32	0.0317496	7.13073	0.0923143	7.13133	0.741709	5.79528e+07	4.47652e+09	4.47689e+09	-89.2583	0.0000000E+000	0.0000000E+000	0.0000000E+000	89.2583	0.0000000E+000	0.0000000E+000	0.0000000E+000	-89.2583	0.0000000E+000	0.0000000E+000	0.0000000E+000	-0.741709	0.0000000E+000	0.0000000E+000	0.0000000E+000	0.741709	77.2441	89.2583	0.0692436