Folder: Thesis/Python/Experiments/Baichen/IronSymmetricNIPSElectrode/IDFF/Data

File: ve=1cms.mpt
EC-Lab ASCII FILE
Nb header lines : 69

Potentio Electrochemical Impedance Spectroscopy

Run on channel : 3 (SN 50730)
User :
CE vs. WE compliance from -10 V to 10 V
Electrode connection : standard
Potential control : Ewe
Ewe ctrl range : min = -10.00 V, max = 10.00 V
Safety Limits :
	Do not start on E overload
Acquisition started on : 02/14/2023 14:58:07.205
Loaded Setting File :  C:\Users\sto063\Documents\EC-Lab\Data\Baichen\Micormolding\20230214_denseNoPatternS4_IDFF\NoPattern_IDFF_05Fe_2MHCL_ve10cms_EIS_PCGA.mps
Saved on :
	File : NoPattern_IDFF_05Fe_2MHCL_ve1cms_EIS_PCGA_01_PEIS_C03.mpr
	Directory : C:\Users\sto063\Documents\EC-Lab\Data\Baichen\Micormolding\20230214_denseNoPatternS4_IDFF\
	Host : 131.155.90.158
Device : VSP-3e (SN .003050)
Address : USB
EC-Lab for windows v11.43 (software)
Internet server v11.40 (firmware)
Command interpretor v11.40 (firmware)
Electrode material :
Initial state :
Electrolyte :
Comments :
Electrode surface area : 0.001 cm2
Characteristic mass : 0.001 g
Equivalent Weight : 0.000 g/eq.
Density : 0.000 g/cm3
Volume (V) : 0.001 cm3
Cycle Definition : Charge/Discharge alternance
Mode                Single sine
E (V)               0.0000
vs.                 Eoc
tE (h:m:s)          0:00:0.0000
record              0
dI                  0.000
unit dI             mA
dt (s)              0.000
fi                  200.000
unit fi             kHz
ff                  5.000
unit ff             mHz
Nd                  8
Points              per decade
spacing             Logarithmic
Va (mV)             10.0
pw                  0.10
Na                  5
corr                0
E range min (V)     -10.000
E range max (V)     10.000
I Range             Auto
Bandwidth           5
nc cycles           0
goto Ns'            0
nr cycles           0
inc. cycle          0

Modify on : 02/14/2023 15:44
ff                  3.000

Modify on : 02/14/2023 15:45
ff                  4.000

freq/Hz	Re(Z)/Ohm	-Im(Z)/Ohm	|Z|/Ohm	Phase(Z)/deg	time/s	<Ewe>/V	<I>/mA	Cs/uF	Cp/uF	cycle number	I Range	|Ewe|/V	|I|/A	Ns	(Q-Qo)/mA.h	Re(Y)/Ohm-1	Im(Y)/Ohm-1	|Y|/Ohm-1	Phase(Y)/deg	Re(C)/nF	Im(C)/nF	|C|/nF	Phase(C)/deg	Re(M)	Im(M)	|M|	Phase(M)/deg	Re(Permittivity)	Im(Permittivity)	|Permittivity|	Phase(Permittivity)/deg	Re(Resistivity)/Ohm.cm	Im(Resistivity)/Ohm.cm	|Resistivity|/Ohm.cm	Phase(Resistivity)/deg	Re(Conductivity)/mS/cm	Im(Conductivity)/mS/cm	|Conductivity|/mS/cm	Phase(Conductivity)/deg	Tan(Delta)	Loss Angle(Delta)/deg	dq/mA.h
199998	0.189344	-0.0750858	0.203688	21.6312	1.7385	-0.000389559	-1.67333	-10.5983	-1.44019	1	9	0.000820187	0.00402668	0	-0.00065674	4.56372	-1.80978	4.90947	-21.6312	-1440.19	3631.73	3906.87	-111.631	0.0000000E+000	0.0000000E+000	0.0000000E+000	111.631	0.0000000E+000	0.0000000E+000	0.0000000E+000	-111.631	0.0000000E+000	0.0000000E+000	0.0000000E+000	21.6312	0.0000000E+000	0.0000000E+000	0.0000000E+000	-21.6312	-2.5217	-21.6312	-0.00065674
83358.1	0.202185	-0.0268373	0.203958	7.56102	4.3475	-0.000445364	-1.68564	-71.1433	-1.23176	1	9	0.022276	0.109218	0	-0.00196412	4.86033	-0.645142	4.90296	-7.56102	-1231.76	9279.79	9361.18	-97.561	0.0000000E+000	0.0000000E+000	0.0000000E+000	97.561	0.0000000E+000	0.0000000E+000	0.0000000E+000	-97.561	0.0000000E+000	0.0000000E+000	0.0000000E+000	7.56102	0.0000000E+000	0.0000000E+000	0.0000000E+000	-7.56102	-7.53374	-7.56102	-0.00056261
34738.7	0.20529	-0.00752321	0.205428	2.09877	8.32648	-0.000326018	-1.16738	-608.98	-0.816755	1	9	0.00932369	0.0453867	0	-0.00347228	4.86463	-0.178273	4.86789	-2.09877	-816.754	22287.2	22302.2	-92.0988	0.0000000E+000	0.0000000E+000	0.0000000E+000	92.0988	0.0000000E+000	0.0000000E+000	0.0000000E+000	-92.0988	0.0000000E+000	0.0000000E+000	0.0000000E+000	2.09877	0.0000000E+000	0.0000000E+000	0.0000000E+000	-2.09877	-27.2875	-2.09877	-0.000214895
14474.5	0.209034	0.00043273	0.209035	-0.11861	10.7985	-0.00030751	-1.09779	25409.8	0.108892	1	9	0.0104706	0.05009	0	-0.00426667	4.78388	0.0099033	4.78389	0.11861	108.889	52601.5	52601.6	-89.8814	0.0000000E+000	0.0000000E+000	0.0000000E+000	89.8814	0.0000000E+000	0.0000000E+000	0.0000000E+000	-89.8814	0.0000000E+000	0.0000000E+000	0.0000000E+000	-0.11861	0.0000000E+000	0.0000000E+000	0.0000000E+000	0.11861	483.06	0.11861	-0.000311494
6032.66	0.212519	0.00299811	0.21254	-0.808246	13.716	-0.000309877	-1.01846	8799.61	1.75096	1	9	0.0102633	0.0482885	0	-0.00510313	4.70452	0.0663689	4.70499	0.808246	1750.95	124116	124128	-89.1918	0.0000000E+000	0.0000000E+000	0.0000000E+000	89.1918	0.0000000E+000	0.0000000E+000	0.0000000E+000	-89.1918	0.0000000E+000	0.0000000E+000	0.0000000E+000	-0.808246	0.0000000E+000	0.0000000E+000	0.0000000E+000	0.808246	70.8844	0.808246	-0.000394416
2515.81	0.215281	0.00340551	0.215308	-0.906281	17.5067	-0.000301937	-1.00423	18576.4	4.64735	1	9	0.0101751	0.0472583	0	-0.00622436	4.64393	0.0734619	4.64451	0.906281	4647.35	293785	293821	-89.0937	0.0000000E+000	0.0000000E+000	0.0000000E+000	89.0937	0.0000000E+000	0.0000000E+000	0.0000000E+000	-89.0937	0.0000000E+000	0.0000000E+000	0.0000000E+000	-0.906281	0.0000000E+000	0.0000000E+000	0.0000000E+000	0.906281	63.2155	0.906281	-0.000408372
1047.65	0.217458	0.00296749	0.217478	-0.781824	20.8582	-0.000299905	-0.978702	51193.4	9.53146	1	9	0.0105336	0.0484353	0	-0.00719246	4.59773	0.0627418	4.59816	0.781824	9531.44	698467	698532	-89.2182	0.0000000E+000	0.0000000E+000	0.0000000E+000	89.2182	0.0000000E+000	0.0000000E+000	0.0000000E+000	-89.2182	0.0000000E+000	0.0000000E+000	0.0000000E+000	-0.781824	0.0000000E+000	0.0000000E+000	0.0000000E+000	0.781824	73.2802	0.781824	-0.000344813
436.817	0.21884	0.00258816	0.218856	-0.677589	24.2039	-0.000296643	-0.964233	140776	19.6878	1	9	0.0105871	0.0483748	0	-0.00817424	4.5689	0.0540351	4.56922	0.677589	19687.8	1.66469e+06	1.6648e+06	-89.3224	0.0000000E+000	0.0000000E+000	0.0000000E+000	89.3224	0.0000000E+000	0.0000000E+000	0.0000000E+000	-89.3224	0.0000000E+000	0.0000000E+000	0.0000000E+000	-0.677589	0.0000000E+000	0.0000000E+000	0.0000000E+000	0.677589	84.5544	0.677589	-0.000317874
182.157	0.219882	0.00263223	0.219898	-0.685862	27.5404	-0.000300688	-0.953451	331933	47.5617	1	9	0.010593	0.0481724	0	-0.00909726	4.54724	0.0544355	4.54757	0.685862	47561.6	3.97304e+06	3.97332e+06	-89.3141	0.0000000E+000	0.0000000E+000	0.0000000E+000	89.3141	0.0000000E+000	0.0000000E+000	0.0000000E+000	-89.3141	0.0000000E+000	0.0000000E+000	0.0000000E+000	-0.685862	0.0000000E+000	0.0000000E+000	0.0000000E+000	0.685862	83.5344	0.685862	-0.000355557
75.8986	0.221218	0.00340845	0.221245	-0.882721	30.8554	-0.000308889	-1.0023	615219	146.015	1	9	0.0105989	0.0479059	0	-0.0100991	4.51935	0.0696323	4.51988	0.882721	146015	9.4768e+06	9.47793e+06	-89.1173	0.0000000E+000	0.0000000E+000	0.0000000E+000	89.1173	0.0000000E+000	0.0000000E+000	0.0000000E+000	-89.1173	0.0000000E+000	0.0000000E+000	0.0000000E+000	-0.882721	0.0000000E+000	0.0000000E+000	0.0000000E+000	0.882721	64.903	0.882721	-0.000317606
31.6296	0.223012	0.00515978	0.223071	-1.3254	34.0654	-0.00029983	-0.963208	975206	521.759	1	9	0.0105964	0.0475022	0	-0.0109009	4.48167	0.103691	4.48287	1.3254	521758	2.25511e+07	2.25571e+07	-88.6746	0.0000000E+000	0.0000000E+000	0.0000000E+000	88.6746	0.0000000E+000	0.0000000E+000	0.0000000E+000	-88.6746	0.0000000E+000	0.0000000E+000	0.0000000E+000	-1.3254	0.0000000E+000	0.0000000E+000	0.0000000E+000	1.3254	43.2212	1.3254	-0.00032535
13.1671	0.225909	0.00781898	0.226045	-1.98228	37.7456	-0.000297547	-0.951169	1.54589e+06	1849.66	1	9	0.0105937	0.0468657	0	-0.0117694	4.42126	0.153025	4.42391	1.98228	1.84966e+06	5.3441e+07	5.3473e+07	-88.0177	0.0000000E+000	0.0000000E+000	0.0000000E+000	88.0177	0.0000000E+000	0.0000000E+000	0.0000000E+000	-88.0177	0.0000000E+000	0.0000000E+000	0.0000000E+000	-1.98228	0.0000000E+000	0.0000000E+000	0.0000000E+000	1.98228	28.8924	1.98228	-0.000102413
5.49402	0.230301	0.0118024	0.230603	-2.9337	40.7128	-0.00030477	-0.921235	2.45449e+06	6429.36	1	9	0.0105954	0.0459465	0	-0.0123911	4.33077	0.221941	4.33645	2.9337	6.42936e+06	1.25457e+08	1.25622e+08	-87.0663	0.0000000E+000	0.0000000E+000	0.0000000E+000	87.0663	0.0000000E+000	0.0000000E+000	0.0000000E+000	-87.0663	0.0000000E+000	0.0000000E+000	0.0000000E+000	-2.9337	0.0000000E+000	0.0000000E+000	0.0000000E+000	2.9337	19.5131	2.9337	-9.16334e-05
2.28703	0.237289	0.0181098	0.237979	-4.36433	46.1122	-0.000293078	-0.866548	3.84269e+06	22252.8	1	9	0.0105966	0.0445276	0	-0.0131381	4.18987	0.319769	4.20206	4.36433	2.22528e+07	2.91574e+08	2.92422e+08	-85.6357	0.0000000E+000	0.0000000E+000	0.0000000E+000	85.6357	0.0000000E+000	0.0000000E+000	0.0000000E+000	-85.6357	0.0000000E+000	0.0000000E+000	0.0000000E+000	-4.36433	0.0000000E+000	0.0000000E+000	0.0000000E+000	4.36433	13.1028	4.36433	0.000343168
0.953907	0.24851	0.0271459	0.249988	-6.23398	59.7716	-0.000277942	-0.853726	6.14623e+06	72473.7	1	10	0.0105979	0.0423936	0	-0.0178678	3.97654	0.434377	4.00019	6.23398	7.24737e+07	6.63467e+08	6.67413e+08	-83.766	0.0000000E+000	0.0000000E+000	0.0000000E+000	83.766	0.0000000E+000	0.0000000E+000	0.0000000E+000	-83.766	0.0000000E+000	0.0000000E+000	0.0000000E+000	-6.23398	0.0000000E+000	0.0000000E+000	0.0000000E+000	6.23398	9.15458	6.23398	-0.00058714
0.397745	0.265761	0.0386814	0.268561	-8.28122	89.5855	-0.000285157	-0.821696	1.03446e+07	214600	1	10	0.0106003	0.0394705	0	-0.0223623	3.68472	0.536309	3.72354	8.28122	2.14601e+08	1.47442e+09	1.48995e+09	-81.7188	0.0000000E+000	0.0000000E+000	0.0000000E+000	81.7188	0.0000000E+000	0.0000000E+000	0.0000000E+000	-81.7188	0.0000000E+000	0.0000000E+000	0.0000000E+000	-8.28122	0.0000000E+000	0.0000000E+000	0.0000000E+000	8.28122	6.87052	8.28122	-0.00426981
0.165554	0.291373	0.0525764	0.296079	-10.2286	160.787	-0.000287598	-0.752971	1.82848e+07	576575	1	10	0.0105978	0.0357939	0	-0.0483532	3.3238	0.599757	3.37748	10.2286	5.76575e+08	3.19532e+09	3.24693e+09	-79.7714	0.0000000E+000	0.0000000E+000	0.0000000E+000	79.7714	0.0000000E+000	0.0000000E+000	0.0000000E+000	-79.7714	0.0000000E+000	0.0000000E+000	0.0000000E+000	-10.2286	0.0000000E+000	0.0000000E+000	0.0000000E+000	10.2286	5.54191	10.2286	-0.00832881
0.0690785	0.329365	0.0691343	0.336542	-11.8544	331.24	-0.000278109	-0.694722	3.3326e+07	1.40634e+06	1	10	0.0105936	0.0314778	0	-0.0547365	2.90802	0.6104	2.97139	11.8544	1.40634e+09	6.7e+09	6.84601e+09	-78.1456	0.0000000E+000	0.0000000E+000	0.0000000E+000	78.1456	0.0000000E+000	0.0000000E+000	0.0000000E+000	-78.1456	0.0000000E+000	0.0000000E+000	0.0000000E+000	-11.8544	0.0000000E+000	0.0000000E+000	0.0000000E+000	11.8544	4.76413	11.8544	-0.00152358
0.0288152	0.386711	0.0707432	0.393129	-10.3668	739.945	-0.000279143	-0.634995	7.80752e+07	2.52821e+06	1	10	0.0105988	0.0269602	0	-0.15564	2.50217	0.457736	2.5437	10.3668	2.52821e+09	1.38202e+10	1.40496e+10	-79.6332	0.0000000E+000	0.0000000E+000	0.0000000E+000	79.6332	0.0000000E+000	0.0000000E+000	0.0000000E+000	-79.6332	0.0000000E+000	0.0000000E+000	0.0000000E+000	-10.3668	0.0000000E+000	0.0000000E+000	0.0000000E+000	10.3668	5.46641	10.3668	-0.0563896
0.0120032	0.42842	0.0440649	0.43068	-5.87248	1721.45	-0.000279562	-0.613358	3.00905e+08	3.14996e+06	1	10	0.0105983	0.0246082	0	-0.389497	2.30973	0.237566	2.32191	5.87248	3.14996e+09	3.06254e+10	3.0787e+10	-84.1275	0.0000000E+000	0.0000000E+000	0.0000000E+000	84.1275	0.0000000E+000	0.0000000E+000	0.0000000E+000	-84.1275	0.0000000E+000	0.0000000E+000	0.0000000E+000	-5.87248	0.0000000E+000	0.0000000E+000	0.0000000E+000	5.87248	9.72248	5.87248	-0.0744468
0.00535092	0.438137	0.021053	0.438642	-2.75102	3997.78	-0.00028494	-0.637876	1.41279e+09	3.2545e+06	1	10	0.0105939	0.0241515	0	-0.528546	2.27713	0.109419	2.27976	2.75102	3.2545e+09	6.77298e+10	6.7808e+10	-87.249	0.0000000E+000	0.0000000E+000	0.0000000E+000	87.249	0.0000000E+000	0.0000000E+000	0.0000000E+000	-87.249	0.0000000E+000	0.0000000E+000	0.0000000E+000	-2.75102	0.0000000E+000	0.0000000E+000	0.0000000E+000	2.75102	20.8111	2.75102	-0.0481341
0.00400108	0.438243	0.0157283	0.438525	-2.05543	5273.88	-0.000278094	-0.632647	2.52907e+09	3.25338e+06	1	10	0.0105981	0.0241676	0	-0.671818	2.2789	0.0817885	2.28037	2.05543	3.25338e+09	9.06502e+10	9.07085e+10	-87.9446	0.0000000E+000	0.0000000E+000	0.0000000E+000	87.9446	0.0000000E+000	0.0000000E+000	0.0000000E+000	-87.9446	0.0000000E+000	0.0000000E+000	0.0000000E+000	-2.05543	0.0000000E+000	0.0000000E+000	0.0000000E+000	2.05543	27.8634	2.05543	-0.143272