Folder: Thesis/Python/Experiments/Baichen/VanadiumFullCell/Data

File: SGL 2.5EA carbon felt_ve=5 cms.mpt
EC-Lab ASCII FILE
Nb header lines : 76

Potentio Electrochemical Impedance Spectroscopy

Run on channel : 1 (SN 5680)
User :
Electrode connection : standard
Potential control : Ewe
Ewe ctrl range : min = 0.00 V, max = 5.00 V
Ewe,I filtering : 50 kHz
Safety Limits :
	Do not start on E overload
Channel : Floating
Acquisition started on : 01/21/2022 14:49:30.130
Loaded Setting File :  C:\Data\baili\Compression Ratio Tests\final\SGL 2.5 Felt ve=2\EIS_fullcell_CR10_flowthrough_C01.mpr
Saved on :
	File : EIS_fullcell_CR30_flowthrough_ve=5_C01.mpr
	Directory : C:\Data\baili\Compression Ratio Tests\final\SGL 2.5 Felt ve=2\SGL 2.5 Felt ve=other\
	Host : 192.168.0.1
Device : SP-300 (SN 0955)
Address : 192.168.0.4
EC-Lab for windows v11.36 (software)
Internet server v11.36 (firmware)
Command interpretor v11.36 (firmware)
Electrode material :
Initial state :
Electrolyte :
Comments :
Current amplifier : B-10A5V
Cable : standard
Electrode surface area : 0.001 cm²
Characteristic mass : 0.001 g
Equivalent Weight : 0.000 g/eq.
Density : 0.000 g/cm3
Volume (V) : 0.000 m³
Record Power
Cycle Definition : Charge/Discharge alternance
External device configuration :
   device type : Other
   device name : Other
   Analog OUT :
      mode : E/V
      unit : speed/rpm
      max : 150.000 at 5.000 V
      min : 0.000 at 0.000 V
      current : 32.000
Mode                Single sine
E (V)               0.0000
vs.                 Eoc
tE (h:m:s)          0:00:0.0000
record              0
dI                  0.000
unit dI             mA
dt (s)              0.000
fi                  200.000
unit fi             kHz
ff                  30.000
unit ff             mHz
Nd                  12
Points              per decade
spacing             Logarithmic
Va (mV)             10.0
pw                  0.10
Na                  3
corr                0
E range min (V)     0.000
E range max (V)     5.000
I Range             Auto
Bandwidth           8
nc cycles           3
goto Ns'            0
nr cycles           0
inc. cycle          0

freq/Hz	Re(Z)/Ohm	-Im(Z)/Ohm	|Z|/Ohm	Phase(Z)/deg	time/s	<Ewe>/V	<I>/mA	Cs/µF	Cp/µF	cycle number	I Range	|Ewe|/V	|I|/A	Ns	(Q-Qo)/mA.h	Analog OUT/V	P/W	Re(Y)/Ohm-1	Im(Y)/Ohm-1	|Y|/Ohm-1	Phase(Y)/deg	Re(C)/nF	Im(C)/nF	|C|/nF	Phase(C)/deg	Re(M)	Im(M)	|M|	Phase(M)/deg	Re(Permittivity)	Im(Permittivity)	|Permittivity|	Phase(Permittivity)/deg	Re(Resistivity)/Ohm.cm	Im(Resistivity)/Ohm.cm	|Resistivity|/Ohm.cm	Phase(Resistivity)/deg	Re(Conductivity)/mS/cm	Im(Conductivity)/mS/cm	|Conductivity|/mS/cm	Phase(Conductivity)/deg	Tan(Delta)	Loss Angle(Delta)/deg	dq/mA.h
199998	0.0683609	-0.0229412	0.0721077	18.5512	1.7835	1.39322	-12.6637	-34.688	-3.51113	1	65	0.00959639	0.133084	0	-0.00203475	32	-0.0176433	13.1476	-4.41217	13.8682	-18.5512	-3511.13	10462.6	11036	-108.551	0.0000000E+000	0.0000000E+000	0.0000000E+000	108.551	0.0000000E+000	0.0000000E+000	0.0000000E+000	-108.551	0.0000000E+000	0.0000000E+000	0.0000000E+000	18.5512	0.0000000E+000	0.0000000E+000	0.0000000E+000	-18.5512	2.97984	71.4488	-0.00203475
75823.9	0.0729201	-0.00388326	0.0730234	3.04833	4.64848	1.3932	5.2911	-540.527	-1.52857	1	65	0.010582	0.144912	0	0.00368331	32	0.00737157	13.6749	-0.728237	13.6942	-3.04833	-1528.57	28703.6	28744.3	-93.0483	0.0000000E+000	0.0000000E+000	0.0000000E+000	93.0483	0.0000000E+000	0.0000000E+000	0.0000000E+000	-93.0483	0.0000000E+000	0.0000000E+000	0.0000000E+000	3.04833	0.0000000E+000	0.0000000E+000	0.0000000E+000	-3.04833	18.778	86.9517	0.00132054
28744.8	0.0776018	0.00584889	0.0778219	-4.31027	7.51548	1.39321	5.77516	946.645	5.34725	1	65	0.0105056	0.134995	0	0.00837558	32	0.00804601	12.8135	0.965761	12.8499	4.31027	5347.25	70946.2	71147.4	-85.6897	0.0000000E+000	0.0000000E+000	0.0000000E+000	85.6897	0.0000000E+000	0.0000000E+000	0.0000000E+000	-85.6897	0.0000000E+000	0.0000000E+000	0.0000000E+000	-4.31027	0.0000000E+000	0.0000000E+000	0.0000000E+000	4.31027	13.2678	85.6897	0.000355392
10902.2	0.085074	0.0121296	0.0859344	-8.11436	10.3835	1.3932	5.87577	1203.54	23.9782	1	65	0.0102812	0.11964	0	0.0141608	32	0.00818614	11.5203	1.64252	11.6368	8.11436	23978.2	168177	169878	-81.8856	0.0000000E+000	0.0000000E+000	0.0000000E+000	81.8856	0.0000000E+000	0.0000000E+000	0.0000000E+000	-81.8856	0.0000000E+000	0.0000000E+000	0.0000000E+000	-8.11436	0.0000000E+000	0.0000000E+000	0.0000000E+000	8.11436	7.01377	81.8856	0.00106171
4131.32	0.0952189	0.016023	0.0965576	-9.55196	14.0837	1.39309	5.04031	2404.29	66.2065	1	65	0.0101358	0.104972	0	0.0194998	32	0.00702163	10.2129	1.71858	10.3565	9.55196	66206.5	393442	398974	-80.448	0.0000000E+000	0.0000000E+000	0.0000000E+000	80.448	0.0000000E+000	0.0000000E+000	0.0000000E+000	-80.448	0.0000000E+000	0.0000000E+000	0.0000000E+000	-9.55196	0.0000000E+000	0.0000000E+000	0.0000000E+000	9.55196	5.94265	80.448	0.0014962
1566.51	0.107806	0.0175781	0.10923	-9.26071	17.5376	1.39308	5.17167	5779.85	149.684	1	65	0.0105555	0.0966355	0	0.0250626	32	0.00720455	9.03566	1.47328	9.15498	9.26071	149684	918011	930134	-80.7393	0.0000000E+000	0.0000000E+000	0.0000000E+000	80.7393	0.0000000E+000	0.0000000E+000	0.0000000E+000	-80.7393	0.0000000E+000	0.0000000E+000	0.0000000E+000	-9.26071	0.0000000E+000	0.0000000E+000	0.0000000E+000	9.26071	6.133	80.7393	0.00084683
593.67	0.119923	0.0142127	0.120762	-6.75891	20.9922	1.39309	5.29203	18862.4	261.271	1	65	0.0104652	0.0866598	0	0.0306895	32	0.00737225	8.2232	0.974578	8.28075	6.75891	261271	2.20453e+06	2.21996e+06	-83.2411	0.0000000E+000	0.0000000E+000	0.0000000E+000	83.2411	0.0000000E+000	0.0000000E+000	0.0000000E+000	-83.2411	0.0000000E+000	0.0000000E+000	0.0000000E+000	-6.75891	0.0000000E+000	0.0000000E+000	0.0000000E+000	6.75891	8.43771	83.2411	0.000934457
225.072	0.127059	0.00853176	0.127345	-3.84154	24.4517	1.39309	5.6138	82881.8	372.026	1	65	0.0104208	0.0818314	0	0.0357184	32	0.00782054	7.83504	0.526108	7.85269	3.84154	372026	5.54038e+06	5.55285e+06	-86.1585	0.0000000E+000	0.0000000E+000	0.0000000E+000	86.1585	0.0000000E+000	0.0000000E+000	0.0000000E+000	-86.1585	0.0000000E+000	0.0000000E+000	0.0000000E+000	-3.84154	0.0000000E+000	0.0000000E+000	0.0000000E+000	3.84154	14.8925	86.1585	0.000985998
85.3553	0.130116	0.00454719	0.130196	-2.0015	27.9129	1.39309	5.75801	410059	500.193	1	65	0.0104283	0.0800969	0	0.0417117	32	0.00802143	7.67605	0.268255	7.68074	2.0015	500193	1.43129e+07	1.43216e+07	-87.9985	0.0000000E+000	0.0000000E+000	0.0000000E+000	87.9985	0.0000000E+000	0.0000000E+000	0.0000000E+000	-87.9985	0.0000000E+000	0.0000000E+000	0.0000000E+000	-2.0015	0.0000000E+000	0.0000000E+000	0.0000000E+000	2.0015	28.6147	87.9985	0.000984023
32.3499	0.13128	0.0023672	0.131301	-1.03303	31.3822	1.39308	5.90055	2.07832e+06	675.528	1	65	0.0104059	0.0792518	0	0.0470925	32	0.00821994	7.61482	0.137308	7.61606	1.03303	675528	3.74634e+07	3.74695e+07	-88.967	0.0000000E+000	0.0000000E+000	0.0000000E+000	88.967	0.0000000E+000	0.0000000E+000	0.0000000E+000	-88.967	0.0000000E+000	0.0000000E+000	0.0000000E+000	-1.03303	0.0000000E+000	0.0000000E+000	0.0000000E+000	1.03303	55.4579	88.967	0.00115764
12.2645	0.134395	0.00144785	0.134403	-0.617229	34.9288	1.39309	7.42606	8.96284e+06	1040.1	1	37	0.0104209	0.0775348	0	0.0526729	32	0.0103451	7.4399	0.0801507	7.44033	0.617229	1.0401e+06	9.65462e+07	9.65518e+07	-89.3828	0.0000000E+000	0.0000000E+000	0.0000000E+000	89.3828	0.0000000E+000	0.0000000E+000	0.0000000E+000	-89.3828	0.0000000E+000	0.0000000E+000	0.0000000E+000	-0.617229	0.0000000E+000	0.0000000E+000	0.0000000E+000	0.617229	92.8239	89.3828	0.00167299
4.65029	0.134933	0.0010416	0.134937	-0.442281	38.3168	1.39308	5.71313	3.28578e+07	1957.86	1	37	0.0104255	0.0772618	0	0.0576811	32	0.00795887	7.41066	0.0572059	7.41088	0.442281	1.95787e+06	2.53628e+08	2.53635e+08	-89.5577	0.0000000E+000	0.0000000E+000	0.0000000E+000	89.5577	0.0000000E+000	0.0000000E+000	0.0000000E+000	-89.5577	0.0000000E+000	0.0000000E+000	0.0000000E+000	-0.442281	0.0000000E+000	0.0000000E+000	0.0000000E+000	0.442281	129.544	89.5577	0.000679985
1.76354	0.135104	0.000855087	0.135107	-0.362626	44.831	1.39307	5.784	1.05542e+08	4227.56	1	37	0.0104165	0.077098	0	0.0702231	32	0.0080575	7.4014	0.0468442	7.40155	0.362626	4.22755e+06	6.67956e+08	6.67969e+08	-89.6374	0.0000000E+000	0.0000000E+000	0.0000000E+000	89.6374	0.0000000E+000	0.0000000E+000	0.0000000E+000	-89.6374	0.0000000E+000	0.0000000E+000	0.0000000E+000	-0.362626	0.0000000E+000	0.0000000E+000	0.0000000E+000	0.362626	158	89.6374	0.00359663
0.668478	0.135944	0.000986158	0.135948	-0.415624	61.4663	1.39307	6.29914	2.41427e+08	12703.8	1	37	0.0104167	0.0766225	0	0.101159	32	0.00877517	7.35556	0.0533582	7.35575	0.415624	1.27039e+07	1.75125e+09	1.7513e+09	-89.5844	0.0000000E+000	0.0000000E+000	0.0000000E+000	89.5844	0.0000000E+000	0.0000000E+000	0.0000000E+000	-89.5844	0.0000000E+000	0.0000000E+000	0.0000000E+000	-0.415624	0.0000000E+000	0.0000000E+000	0.0000000E+000	0.415624	137.853	89.5844	0.0120337
0.253521	0.136477	0.00050932	0.136478	-0.213821	104.836	1.39307	7.26499	1.23258e+09	17166	1	37	0.0104187	0.0763399	0	0.168175	32	0.0101207	7.32712	0.0273441	7.32717	0.213821	1.7166e+07	4.5998e+09	4.59984e+09	-89.7862	0.0000000E+000	0.0000000E+000	0.0000000E+000	89.7862	0.0000000E+000	0.0000000E+000	0.0000000E+000	-89.7862	0.0000000E+000	0.0000000E+000	0.0000000E+000	-0.213821	0.0000000E+000	0.0000000E+000	0.0000000E+000	0.213821	267.96	89.7862	0.0239399
0.0960805	0.136166	-8.36711e-05	0.136166	0.035207	218.825	1.3931	9.35877	-1.97975e+10	-7475.2	1	37	0.0104199	0.0765235	0	0.464786	32	0.0130377	7.34397	-0.00451271	7.34397	-0.035207	-7.47576e+06	1.21651e+10	1.21651e+10	-90.0352	0.0000000E+000	0.0000000E+000	0.0000000E+000	90.0352	0.0000000E+000	0.0000000E+000	0.0000000E+000	-90.0352	0.0000000E+000	0.0000000E+000	0.0000000E+000	0.035207	0.0000000E+000	0.0000000E+000	0.0000000E+000	-0.035207	1627.4	89.9648	0.0731875
0.036443	0.135394	0.000505746	0.135395	-0.214019	518.95	1.39307	13.1591	8.63524e+09	120485	1	37	0.0104254	0.0769995	0	1.37956	32	0.0183315	7.38573	0.0275883	7.38578	0.214019	1.20485e+08	3.22552e+10	3.22554e+10	-89.786	0.0000000E+000	0.0000000E+000	0.0000000E+000	89.786	0.0000000E+000	0.0000000E+000	0.0000000E+000	-89.786	0.0000000E+000	0.0000000E+000	0.0000000E+000	-0.214019	0.0000000E+000	0.0000000E+000	0.0000000E+000	0.214019	267.712	89.786	0.343082
111760	0.0718847	-0.00990181	0.0725634	7.84289	625.02	1.39318	15.9051	-143.821	-2.67802	2	65	0.0105717	0.145689	0	1.86283	32	0.0221587	13.6521	-1.88052	13.781	-7.84289	-2678.02	19441.8	19625.4	-97.8429	0.0000000E+000	0.0000000E+000	0.0000000E+000	97.8429	0.0000000E+000	0.0000000E+000	0.0000000E+000	-97.8429	0.0000000E+000	0.0000000E+000	0.0000000E+000	7.84289	0.0000000E+000	0.0000000E+000	0.0000000E+000	-7.84289	7.25975	82.1571	0.00230421
42374.9	0.0757721	0.00227684	0.0758063	-1.72114	627.884	1.39317	15.9079	1649.6	1.4881	2	65	0.0105147	0.138705	0	1.87658	32	0.0221625	13.1856	0.396207	13.1915	1.72114	1488.1	49523.3	49545.7	-88.2789	0.0000000E+000	0.0000000E+000	0.0000000E+000	88.2789	0.0000000E+000	0.0000000E+000	0.0000000E+000	-88.2789	0.0000000E+000	0.0000000E+000	0.0000000E+000	-1.72114	0.0000000E+000	0.0000000E+000	0.0000000E+000	1.72114	33.2795	88.2789	0.00104648
16061.1	0.0818245	0.00971592	0.0823994	-6.77165	630.752	1.39317	15.7341	1019.91	14.1802	2	65	0.0103657	0.125799	0	1.88862	32	0.0219204	12.0514	1.43099	12.136	6.77165	14180.2	119421	120260	-83.2283	0.0000000E+000	0.0000000E+000	0.0000000E+000	83.2283	0.0000000E+000	0.0000000E+000	0.0000000E+000	-83.2283	0.0000000E+000	0.0000000E+000	0.0000000E+000	-6.77165	0.0000000E+000	0.0000000E+000	0.0000000E+000	6.77165	8.42169	83.2283	0.00282978
6087.59	0.0907602	0.0145325	0.0919163	-9.09697	633.983	1.39309	15.1858	1799.01	44.9707	2	65	0.0101678	0.11062	0	1.90138	32	0.0211551	10.7426	1.72011	10.8795	9.09697	44970.8	280857	284434	-80.903	0.0000000E+000	0.0000000E+000	0.0000000E+000	80.903	0.0000000E+000	0.0000000E+000	0.0000000E+000	-80.903	0.0000000E+000	0.0000000E+000	0.0000000E+000	-9.09697	0.0000000E+000	0.0000000E+000	0.0000000E+000	9.09697	6.24533	80.903	0.00323392
2309.26	0.102211	0.0170811	0.103628	-9.48738	637.675	1.39308	15.2079	4034.89	109.624	2	65	0.010764	0.103872	0	1.91675	32	0.0211859	9.51789	1.59059	9.64989	9.48738	109624	655976	665073	-80.5126	0.0000000E+000	0.0000000E+000	0.0000000E+000	80.5126	0.0000000E+000	0.0000000E+000	0.0000000E+000	-80.5126	0.0000000E+000	0.0000000E+000	0.0000000E+000	-9.48738	0.0000000E+000	0.0000000E+000	0.0000000E+000	9.48738	5.98386	80.5126	0.00309484
1901.83	0.10469	0.017196	0.106093	-9.32784	638.365	1.39308	15.2586	4866.56	127.85	2	65	0.0108	0.101798	0	1.91941	32	0.0212565	9.30103	1.52774	9.42566	9.32784	127850	778359	788789	-80.6722	0.0000000E+000	0.0000000E+000	0.0000000E+000	80.6722	0.0000000E+000	0.0000000E+000	0.0000000E+000	-80.6722	0.0000000E+000	0.0000000E+000	0.0000000E+000	-9.32784	0.0000000E+000	0.0000000E+000	0.0000000E+000	9.32784	6.08808	80.6722	0.00266252