Folder: Thesis/Python/Experiments/IRFB/240415-Felt-0p5M_FeCl2FeCl23-1M_HCl/Data (part 2)

File: 240416-EIS-0p5M_FeCl2FeCl3-1M_HCl-20mLmin_Dampened-25mHz_10ppd_C15.mpt
EC-Lab ASCII FILE
Nb header lines : 66

Potentio Electrochemical Impedance Spectroscopy

Run on channel : 15 (SN 19485)
User :
Electrode connection : standard
Potential control : Ewe
Ewe ctrl range : min = -1.00 V, max = 1.00 V
Ewe,I filtering : <None>
Safety Limits :
	Do not start on E overload
Channel : Floating
Acquisition started on : 04/16/2024 11:45:13.974
Loaded Setting File :  NONE
Saved on :
	File : 240416-EIS-0p5M_FeCl2FeCl3-1M_HCl-20mLmin_Dampened-25mHz_10ppd_C15.mpr
	Directory : C:\Data\mathias\IRFB\
	Host : 192.168.0.1
Device : VMP-300 (SN 0826)
Address : USB
EC-Lab for windows v11.52 (software)
Internet server v11.52 (firmware)
Command interpretor v11.52 (firmware)
Electrode material :
Initial state :
Electrolyte :
Comments :
Cable : special
Electrode surface area : 0.001 cm²
Characteristic mass : 0.001 g
Equivalent Weight : 0.000 g/eq.
Density : 0.000 g/cm3
Volume (V) : 0.001 cm³
Record EIS quality indicators
Cycle Definition : Charge/Discharge alternance
Mode                Single sine
E (V)               0.0000
vs.                 Eoc
tE (h:m:s)          0:00:0.0000
record              0
dI                  0.000
unit dI             mA
dt (s)              0.000
fi                  920.000
unit fi             kHz
ff                  25.000
unit ff             mHz
Nd                  10
Points              per decade
spacing             Logarithmic
Va (mV)             5.0
pw                  0.10
Na                  3
corr                0
E range min (V)     -1.000
E range max (V)     1.000
I Range             Auto
Bandwidth           8
nc cycles           0
goto Ns'            0
nr cycles           999
inc. cycle          1

freq/Hz	Re(Z)/Ohm	-Im(Z)/Ohm	|Z|/Ohm	Phase(Z)/deg	time/s	<Ewe>/V	<I>/mA	Cs/µF	Cp/µF	cycle number	I Range	|Ewe|/V	|I|/A	Ns	(Q-Qo)/mA.h	THD Ewe/%	NSD Ewe/%	NSR Ewe/%	|Ewe h2|/V	|Ewe h3|/V	|Ewe h4|/V	|Ewe h5|/V	|Ewe h6|/V	|Ewe h7|/V	THD I/%	NSD I/%	NSR I/%	|I h2|/A	|I h3|/A	|I h4|/A	|I h5|/A	|I h6|/A	|I h7|/A	Re(Y)/Ohm-1	Im(Y)/Ohm-1	|Y|/Ohm-1	Phase(Y)/deg	Re(C)/nF	Im(C)/nF	|C|/nF	Phase(C)/deg	Re(M)	Im(M)	|M|	Phase(M)/deg	Re(Permittivity)	Im(Permittivity)	|Permittivity|	Phase(Permittivity)/deg	Re(Resistivity)/Ohm.cm	Im(Resistivity)/Ohm.cm	|Resistivity|/Ohm.cm	Phase(Resistivity)/deg	Re(Conductivity)/mS/cm	Im(Conductivity)/mS/cm	|Conductivity|/mS/cm	Phase(Conductivity)/deg	Tan(Delta)	Loss Angle(Delta)/deg	dq/mA.h
920001	-0.0945144	-0.221103	0.240457	113.145	1.97648	-0.000120619	-0.508761	-0.782414	-0.661534	1	37	0.000708629	0.00294701	0	-0.000262372	-1	-1	-1	0	0	0	0	0	0	-1	-1	-1	0	0	0	0	0	0	-1.63464	-3.82402	4.15875	-113.145	-661.534	-282.784	719.44	156.855	0.0000000E+000	0.0000000E+000	0.0000000E+000	-156.855	0.0000000E+000	0.0000000E+000	0.0000000E+000	156.855	0.0000000E+000	0.0000000E+000	0.0000000E+000	113.145	0.0000000E+000	0.0000000E+000	0.0000000E+000	-113.145	0.427467	23.1451	-0.000262372
379.393	0.121446	0.00318782	0.121488	-1.5036	42.9841	-0.000227001	-1.18684	131594	90.6059	1	37	0.00510932	0.0420561	0	-0.0101136	0.359684	0.159181	6.35886	9.1043e-06	4.45645e-06	7.41913e-06	5.76984e-06	7.54363e-06	6.48665e-06	0.0547312	0.0441987	0.527942	4.49924e-06	1.70652e-05	3.78695e-06	1.12633e-05	5.67196e-06	3.94087e-06	8.22842	0.215986	8.23126	1.5036	90606	3.45181e+06	3.453e+06	-88.4964	0.0000000E+000	0.0000000E+000	0.0000000E+000	88.4964	0.0000000E+000	0.0000000E+000	0.0000000E+000	-88.4964	0.0000000E+000	0.0000000E+000	0.0000000E+000	-1.5036	0.0000000E+000	0.0000000E+000	0.0000000E+000	1.5036	38.097	88.4964	-0.00041242
0.15652	0.139802	0.014304	0.140532	-5.84198	254.649	-0.00021134	-1.26095	7.10874e+07	736482	1	37	0.00526312	0.0374515	0	-0.0901808	0.103956	0.099726	0.543602	1.53725e-06	4.38164e-06	9.41696e-07	2.1684e-06	1.23019e-06	6.47646e-07	0.13316	0.117406	0.397395	1.77019e-05	2.38702e-05	1.17843e-05	3.17237e-05	7.01075e-06	1.08662e-05	7.07888	0.724287	7.11583	5.84198	7.36482e+08	7.19807e+09	7.23565e+09	-84.158	0.0000000E+000	0.0000000E+000	0.0000000E+000	84.158	0.0000000E+000	0.0000000E+000	0.0000000E+000	-84.158	0.0000000E+000	0.0000000E+000	0.0000000E+000	-5.84198	0.0000000E+000	0.0000000E+000	0.0000000E+000	5.84198	9.77358	84.158	-0.0212362
2985.95	0.113451	0.00967341	0.113862	-4.87355	1289.75	-0.000250768	-1.35457	5510.08	39.7701	2	37	0.00515186	0.0452464	0	-0.00642671	0.309306	0.224413	6.39949	4.60119e-06	6.74119e-06	5.21163e-06	5.0085e-06	7.87744e-06	7.04779e-06	0.0714939	0.0453493	0.482885	3.0906e-06	3.0877e-05	3.56402e-06	3.64572e-06	3.64577e-06	4.87709e-06	8.75078	0.746138	8.78254	4.87355	39770	466427	468120	-85.1265	0.0000000E+000	0.0000000E+000	0.0000000E+000	85.1265	0.0000000E+000	0.0000000E+000	0.0000000E+000	-85.1265	0.0000000E+000	0.0000000E+000	0.0000000E+000	-4.87355	0.0000000E+000	0.0000000E+000	0.0000000E+000	4.87355	11.7281	85.1265	-0.000441973
1.23128	0.12629	0.00397282	0.126353	-1.80181	1343.96	-0.000210928	-1.24905	3.25359e+07	32165.7	2	37	0.00542737	0.0429542	0	-0.0245672	0.128065	0.0444737	1.51293	2.23556e-06	4.80075e-06	1.43078e-06	3.15847e-06	1.59875e-06	1.62304e-06	0.115543	0.167142	0.271398	1.52359e-05	3.47173e-05	5.45282e-06	2.99058e-05	4.9197e-06	4.90877e-06	7.91045	0.248846	7.91436	1.80181	3.21657e+07	1.0225e+09	1.02301e+09	-88.1982	0.0000000E+000	0.0000000E+000	0.0000000E+000	88.1982	0.0000000E+000	0.0000000E+000	0.0000000E+000	-88.1982	0.0000000E+000	0.0000000E+000	0.0000000E+000	-1.80181	0.0000000E+000	0.0000000E+000	0.0000000E+000	1.80181	31.7885	88.1982	0.00120595
23493.2	0.0940521	0.00835879	0.0944228	-5.07876	2537.2	-0.00015078	-0.556069	810.467	6.35138	3	37	0.00518345	0.0548962	0	-0.00255356	0.357166	0.156602	6.27108	2.51762e-06	7.91992e-06	9.83229e-06	5.7524e-06	6.72583e-06	7.74818e-06	0.123393	0.0116834	0.408511	5.14752e-06	6.65533e-05	4.23903e-06	8.46233e-06	4.61847e-06	3.56207e-06	10.5491	0.93754	10.5907	5.07876	6351.38	71465	71746.7	-84.9212	0.0000000E+000	0.0000000E+000	0.0000000E+000	84.9212	0.0000000E+000	0.0000000E+000	0.0000000E+000	-84.9212	0.0000000E+000	0.0000000E+000	0.0000000E+000	-5.07876	0.0000000E+000	0.0000000E+000	0.0000000E+000	5.07876	11.2519	84.9212	-0.000243965
9.68695	0.123625	0.00180996	0.123639	-0.838788	2577.85	-0.000218594	-1.37757	9.07746e+06	1945.33	3	37	0.00527037	0.0426272	0	-0.0173368	0.319257	0.139538	6.18072	9.19959e-06	7.46912e-06	4.07923e-06	6.2993e-06	6.05834e-06	3.40012e-06	0.181408	0.119728	0.498183	3.11848e-05	3.89867e-05	7.99713e-06	5.34155e-05	1.10832e-05	3.69457e-06	8.08721	0.118402	8.08808	0.838788	1.94533e+06	1.32872e+08	1.32886e+08	-89.1612	0.0000000E+000	0.0000000E+000	0.0000000E+000	89.1612	0.0000000E+000	0.0000000E+000	0.0000000E+000	-89.1612	0.0000000E+000	0.0000000E+000	0.0000000E+000	-0.838788	0.0000000E+000	0.0000000E+000	0.0000000E+000	0.838788	68.3029	89.1612	-0.000218459
184902	0.0812253	-0.015797	0.0827472	11.0057	3785.5	-0.000118718	-0.509262	-54.4883	-1.98585	4	37	0.00381336	0.0460845	0	-0.00230084	-1	-1	-1	0	0	0	0	0	0	-1	-1	-1	0	0	0	0	0	0	11.8627	-2.30711	12.085	-11.0057	-1985.85	10210.9	10402.2	-101.006	0.0000000E+000	0.0000000E+000	0.0000000E+000	101.006	0.0000000E+000	0.0000000E+000	0.0000000E+000	-101.006	0.0000000E+000	0.0000000E+000	0.0000000E+000	11.0057	0.0000000E+000	0.0000000E+000	0.0000000E+000	-11.0057	5.14182	78.9943	-0.000115821
[...]
4721.51	0.108238	0.0112578	0.108821	-5.93801	6321.07	-0.00025226	-1.45833	2994.23	32.0454	6	37	0.00516592	0.0474715	0	-0.00607943	0.259502	0.2174	6.19035	5.36089e-06	3.90785e-06	3.22141e-06	4.69326e-06	5.42522e-06	6.38152e-06	0.0867384	0.101192	0.478638	4.24952e-06	3.82052e-05	4.23858e-06	1.17784e-05	4.31735e-06	4.97105e-06	9.14006	0.950662	9.18937	5.93801	32045.4	308098	309760	-84.062	0.0000000E+000	0.0000000E+000	0.0000000E+000	84.062	0.0000000E+000	0.0000000E+000	0.0000000E+000	-84.062	0.0000000E+000	0.0000000E+000	0.0000000E+000	-5.93801	0.0000000E+000	0.0000000E+000	0.0000000E+000	5.93801	9.61442	84.062	-0.000591148
1.94632	0.124827	0.0028354	0.124859	-1.30123	6368.32	-0.000221355	-1.47527	2.88399e+07	14872.5	6	37	0.00542763	0.0434701	0	-0.0244309	0.170555	0.0842417	1.95497	2.28299e-06	6.46912e-06	3.7335e-06	2.33761e-06	2.53559e-06	2.5012e-06	0.118593	0.0779847	0.286693	1.76326e-05	3.63957e-05	7.94175e-06	2.62582e-05	8.37e-06	6.5382e-06	8.00699	0.181876	8.00905	1.30123	1.48725e+07	6.54751e+08	6.5492e+08	-88.6988	0.0000000E+000	0.0000000E+000	0.0000000E+000	88.6988	0.0000000E+000	0.0000000E+000	0.0000000E+000	-88.6988	0.0000000E+000	0.0000000E+000	0.0000000E+000	-1.30123	0.0000000E+000	0.0000000E+000	0.0000000E+000	1.30123	44.0244	88.6988	-0.000865166
37160.4	0.0899409	0.00521075	0.0900918	-3.31574	7568.88	-0.000140266	-0.695337	821.938	2.7496	7	37	0.00520497	0.0577741	0	-0.00465867	0.300119	0.135535	6.3475	4.98042e-06	5.09117e-06	6.84564e-06	2.80187e-06	6.89396e-06	7.57168e-06	0.130277	0.0406261	0.376909	7.26583e-06	7.40663e-05	5.8278e-06	7.05403e-06	3.76853e-06	3.41176e-06	11.0812	0.641993	11.0998	3.31574	2749.61	47459.9	47539.5	-86.6843	0.0000000E+000	0.0000000E+000	0.0000000E+000	86.6843	0.0000000E+000	0.0000000E+000	0.0000000E+000	-86.6843	0.0000000E+000	0.0000000E+000	0.0000000E+000	-3.31574	0.0000000E+000	0.0000000E+000	0.0000000E+000	3.31574	17.2606	86.6843	-0.000256776
15.3186	0.122871	0.00169554	0.122882	-0.790596	7609.69	-0.000217122	-1.37802	6.12764e+06	1166.62	7	37	0.00526915	0.0428797	0	-0.0203862	0.339078	0.144705	6.16429	9.12111e-06	7.5183e-06	5.9519e-06	7.31542e-06	5.80262e-06	5.57637e-06	0.128186	0.0862414	0.507801	1.14861e-05	3.85784e-05	6.76013e-06	3.17705e-05	9.19206e-06	7.03987e-06	8.1371	0.112287	8.13787	0.790596	1.16662e+06	8.45415e+07	8.45496e+07	-89.2094	0.0000000E+000	0.0000000E+000	0.0000000E+000	89.2094	0.0000000E+000	0.0000000E+000	0.0000000E+000	-89.2094	0.0000000E+000	0.0000000E+000	0.0000000E+000	-0.790596	0.0000000E+000	0.0000000E+000	0.0000000E+000	0.790596	72.4671	89.2094	-0.000237743
0.0988834	0.143863	0.0124162	0.144397	-4.93273	7917.08	-0.000203169	-1.46831	1.29631e+08	958442	7	37	0.00526352	0.0364516	0	-0.128979	0.117239	0.108479	0.43893	1.37111e-06	4.81663e-06	7.83133e-07	2.95477e-06	1.58264e-06	8.53454e-07	0.131797	0.0866496	0.400331	7.05545e-06	3.04042e-05	5.26455e-06	3.43515e-05	6.02013e-06	4.55618e-06	6.89968	0.595482	6.92533	4.93273	9.58441e+08	1.11052e+10	1.11465e+10	-85.0673	0.0000000E+000	0.0000000E+000	0.0000000E+000	85.0673	0.0000000E+000	0.0000000E+000	0.0000000E+000	-85.0673	0.0000000E+000	0.0000000E+000	0.0000000E+000	-4.93273	0.0000000E+000	0.0000000E+000	0.0000000E+000	4.93273	11.5867	85.0673	-0.018752

File: 240416-EIS-0p5M_FeCl2FeCl3-1M_HCl-50mLmin_Dampened-25mHz_10ppd_C15.mpt
EC-Lab ASCII FILE
Nb header lines : 66

Potentio Electrochemical Impedance Spectroscopy

Run on channel : 15 (SN 19485)
User :
Electrode connection : standard
Potential control : Ewe
Ewe ctrl range : min = -1.00 V, max = 1.00 V
Ewe,I filtering : <None>
Safety Limits :
	Do not start on E overload
Channel : Floating
Acquisition started on : 04/16/2024 15:05:11.128
Loaded Setting File :  NONE
Saved on :
	File : 240416-EIS-0p5M_FeCl2FeCl3-1M_HCl-50mLmin_Dampened-25mHz_10ppd_C15.mpr
	Directory : C:\Data\mathias\IRFB\
	Host : 192.168.0.1
Device : VMP-300 (SN 0826)
Address : USB
EC-Lab for windows v11.52 (software)
Internet server v11.52 (firmware)
Command interpretor v11.52 (firmware)
Electrode material :
Initial state :
Electrolyte :
Comments :
Cable : special
Electrode surface area : 0.001 cm²
Characteristic mass : 0.001 g
Equivalent Weight : 0.000 g/eq.
Density : 0.000 g/cm3
Volume (V) : 0.001 cm³
Record EIS quality indicators
Cycle Definition : Charge/Discharge alternance
Mode                Single sine
E (V)               0.0000
vs.                 Eoc
tE (h:m:s)          0:00:0.0000
record              0
dI                  0.000
unit dI             mA
dt (s)              0.000
fi                  920.000
unit fi             kHz
ff                  25.000
unit ff             mHz
Nd                  10
Points              per decade
spacing             Logarithmic
Va (mV)             5.0
pw                  0.10
Na                  3
corr                0
E range min (V)     -1.000
E range max (V)     1.000
I Range             Auto
Bandwidth           8
nc cycles           2
goto Ns'            0
nr cycles           0
inc. cycle          1

freq/Hz	Re(Z)/Ohm	-Im(Z)/Ohm	|Z|/Ohm	Phase(Z)/deg	time/s	<Ewe>/V	<I>/mA	Cs/µF	Cp/µF	cycle number	I Range	|Ewe|/V	|I|/A	Ns	(Q-Qo)/mA.h	THD Ewe/%	NSD Ewe/%	NSR Ewe/%	|Ewe h2|/V	|Ewe h3|/V	|Ewe h4|/V	|Ewe h5|/V	|Ewe h6|/V	|Ewe h7|/V	THD I/%	NSD I/%	NSR I/%	|I h2|/A	|I h3|/A	|I h4|/A	|I h5|/A	|I h6|/A	|I h7|/A	Re(Y)/Ohm-1	Im(Y)/Ohm-1	|Y|/Ohm-1	Phase(Y)/deg	Re(C)/nF	Im(C)/nF	|C|/nF	Phase(C)/deg	Re(M)	Im(M)	|M|	Phase(M)/deg	Re(Permittivity)	Im(Permittivity)	|Permittivity|	Phase(Permittivity)/deg	Re(Resistivity)/Ohm.cm	Im(Resistivity)/Ohm.cm	|Resistivity|/Ohm.cm	Phase(Resistivity)/deg	Re(Conductivity)/mS/cm	Im(Conductivity)/mS/cm	|Conductivity|/mS/cm	Phase(Conductivity)/deg	Tan(Delta)	Loss Angle(Delta)/deg	dq/mA.h
920001	-0.0954137	-0.220046	0.239841	113.442	1.97648	-0.000129566	-1.16628	-0.786174	-0.661754	1	37	0.000707001	0.00294779	0	-0.00060945	-1	-1	-1	0	0	0	0	0	0	-1	-1	-1	0	0	0	0	0	0	-1.65868	-3.82529	4.16942	-113.442	-661.754	-286.942	721.286	156.558	0.0000000E+000	0.0000000E+000	0.0000000E+000	-156.558	0.0000000E+000	0.0000000E+000	0.0000000E+000	156.558	0.0000000E+000	0.0000000E+000	0.0000000E+000	113.442	0.0000000E+000	0.0000000E+000	0.0000000E+000	-113.442	0.433608	23.442	-0.00060945
29552	0.0904963	0.00663279	0.0907391	-4.19191	19.0545	-0.000121122	-1.06138	811.963	4.33851	1	37	0.00519228	0.0572221	0	-0.00607149	0.387583	0.145526	6.25957	5.74454e-06	1.04537e-05	7.09182e-06	7.58346e-06	8.46012e-06	6.06786e-06	0.13162	0.0231331	0.382842	1.25215e-05	7.26138e-05	4.87177e-06	1.1441e-05	5.63823e-06	4.61288e-06	10.9911	0.805578	11.0206	4.19191	4338.51	59193.6	59352.4	-85.8081	0.0000000E+000	0.0000000E+000	0.0000000E+000	85.8081	0.0000000E+000	0.0000000E+000	0.0000000E+000	-85.8081	0.0000000E+000	0.0000000E+000	0.0000000E+000	-4.19191	0.0000000E+000	0.0000000E+000	0.0000000E+000	4.19191	13.6438	85.8081	-0.000446599
949.092	0.117574	0.006119	0.117733	-2.9792	37.89	-0.000249836	-2.01385	27405.1	74.0276	1	37	0.00511375	0.043435	0	-0.0150497	0.274292	0.100378	6.24097	4.26064e-06	5.5547e-06	4.55189e-06	6.66397e-06	5.21834e-06	5.97363e-06	0.0351551	0.10386	0.503329	6.02287e-06	6.54198e-06	4.09292e-06	9.30174e-06	5.15091e-06	2.52678e-06	8.48229	0.44145	8.49377	2.9792	74027.6	1.42241e+06	1.42434e+06	-87.0208	0.0000000E+000	0.0000000E+000	0.0000000E+000	87.0208	0.0000000E+000	0.0000000E+000	0.0000000E+000	-87.0208	0.0000000E+000	0.0000000E+000	0.0000000E+000	-2.9792	0.0000000E+000	0.0000000E+000	0.0000000E+000	2.9792	19.2146	87.0208	-0.000832008
30.4779	0.122159	0.00137317	0.122167	-0.644022	55.3806	-0.000208808	-1.8202	3.80288e+06	480.453	1	37	0.00526788	0.0431203	0	-0.0240934	0.339158	0.146188	6.10889	5.43333e-06	7.32268e-06	7.13998e-06	7.53906e-06	6.44471e-06	6.29995e-06	0.132074	0.100572	0.502947	7.68397e-06	3.96389e-05	7.06162e-06	3.59027e-05	9.44306e-06	4.36741e-06	8.185	0.0920058	8.18552	0.644022	480451	4.2742e+07	4.27447e+07	-89.356	0.0000000E+000	0.0000000E+000	0.0000000E+000	89.356	0.0000000E+000	0.0000000E+000	0.0000000E+000	-89.356	0.0000000E+000	0.0000000E+000	0.0000000E+000	-0.644022	0.0000000E+000	0.0000000E+000	0.0000000E+000	0.644022	88.9618	89.356	-0.000632558
0.978641	0.125064	0.00385846	0.125123	-1.76713	92.0355	-0.000195654	-1.79805	4.21486e+07	40080.7	1	37	0.00527089	0.0421256	0	-0.0404696	0.142635	0.084059	1.38624	2.25409e-06	5.585e-06	2.26882e-06	1.39987e-06	2.1885e-06	1.99396e-06	0.121705	0.0953305	0.269992	1.58829e-05	3.79465e-05	8.90579e-06	2.54013e-05	9.66625e-06	7.56214e-06	7.98833	0.246455	7.99213	1.76713	4.00807e+07	1.29913e+09	1.29975e+09	-88.2329	0.0000000E+000	0.0000000E+000	0.0000000E+000	88.2329	0.0000000E+000	0.0000000E+000	0.0000000E+000	-88.2329	0.0000000E+000	0.0000000E+000	0.0000000E+000	-1.76713	0.0000000E+000	0.0000000E+000	0.0000000E+000	1.76713	32.4129	88.2329	0.000232404
0.0314526	0.135767	0.00109745	0.135772	-0.46313	1014.27	-0.000200123	-1.72836	4.61083e+09	301253	1	37	0.00526461	0.0387755	0	-0.475506	0.141061	0.152021	0.286266	2.49037e-06	5.80418e-06	2.24152e-06	2.13937e-06	1.24884e-06	1.1072e-06	0.1212	0.215859	0.204139	1.60934e-05	2.69286e-05	1.14969e-05	2.99317e-05	2.51563e-06	8.33964e-06	7.36507	0.0595342	7.36531	0.46313	3.01251e+08	3.72684e+10	3.72696e+10	-89.5369	0.0000000E+000	0.0000000E+000	0.0000000E+000	89.5369	0.0000000E+000	0.0000000E+000	0.0000000E+000	-89.5369	0.0000000E+000	0.0000000E+000	0.0000000E+000	-0.46313	0.0000000E+000	0.0000000E+000	0.0000000E+000	0.46313	123.711	89.5369	-0.057283
46735.8	0.0877297	0.00305647	0.0877829	-1.99536	1274.92	-0.000101866	-0.841585	1114.17	1.35074	2	37	0.00520577	0.0593028	0	-0.566934	0.426426	0.227609	6.2678	7.02712e-06	1.1022e-05	7.36349e-06	4.86761e-06	6.91892e-06	8.85822e-06	0.124093	0.0177731	0.365767	3.27087e-06	7.25963e-05	3.63174e-06	5.94275e-06	6.34051e-06	4.94557e-06	11.3848	0.396643	11.3917	1.99536	1350.73	38770.1	38793.6	-88.0046	0.0000000E+000	0.0000000E+000	0.0000000E+000	88.0046	0.0000000E+000	0.0000000E+000	0.0000000E+000	-88.0046	0.0000000E+000	0.0000000E+000	0.0000000E+000	-1.99536	0.0000000E+000	0.0000000E+000	0.0000000E+000	1.99536	28.703	88.0046	-0.000249128
[...]
2374.24	0.112601	0.00980855	0.113027	-4.97843	2548.9	-0.000235464	-1.7975	6834.25	51.4679	3	37	0.00515005	0.0455648	0	-1.1492	0.361351	0.224715	6.28855	1.00139e-05	5.75017e-06	6.23241e-06	8.77005e-06	5.80384e-06	5.2005e-06	0.055125	0.032218	0.483715	5.69181e-06	2.19821e-05	3.1438e-06	4.01081e-06	6.60733e-06	5.3731e-06	8.81407	0.767787	8.84745	4.97843	51467.9	590843	593080	-85.0216	0.0000000E+000	0.0000000E+000	0.0000000E+000	85.0216	0.0000000E+000	0.0000000E+000	0.0000000E+000	-85.0216	0.0000000E+000	0.0000000E+000	0.0000000E+000	-4.97843	0.0000000E+000	0.0000000E+000	0.0000000E+000	4.97843	11.4798	85.0216	-0.000760432
76.244	0.121226	0.00167881	0.121238	-0.793412	2567.25	-0.000206963	-1.76416	1.24341e+06	238.418	3	37	0.00524616	0.0432716	0	-1.15819	0.350672	0.193761	6.16868	9.73495e-06	4.84886e-06	8.12532e-06	6.26655e-06	3.8599e-06	6.84209e-06	0.138617	0.082991	0.503212	3.4911e-05	3.63912e-05	4.71679e-06	3.0796e-05	6.72861e-06	3.59371e-06	8.24746	0.114215	8.24825	0.793412	238417	1.72161e+07	1.72177e+07	-89.2066	0.0000000E+000	0.0000000E+000	0.0000000E+000	89.2066	0.0000000E+000	0.0000000E+000	0.0000000E+000	-89.2066	0.0000000E+000	0.0000000E+000	0.0000000E+000	-0.793412	0.0000000E+000	0.0000000E+000	0.0000000E+000	0.793412	72.2098	89.2066	-0.000566401
2.44752	0.123668	0.00208285	0.123685	-0.964901	2588.67	-0.000195142	-1.6771	3.12202e+07	8853.5	3	37	0.00527491	0.0426479	0	-1.16751	0.149877	0.0738348	2.22217	1.62097e-06	4.94381e-06	1.99271e-06	4.25323e-06	1.52625e-06	2.24875e-06	0.147978	0.0450324	0.279533	4.86039e-06	3.92102e-05	5.12419e-06	2.40653e-05	1.16431e-05	4.03838e-05	8.08389	0.136151	8.08504	0.964901	8.85346e+06	5.25671e+08	5.25745e+08	-89.0351	0.0000000E+000	0.0000000E+000	0.0000000E+000	89.0351	0.0000000E+000	0.0000000E+000	0.0000000E+000	-89.0351	0.0000000E+000	0.0000000E+000	0.0000000E+000	-0.964901	0.0000000E+000	0.0000000E+000	0.0000000E+000	0.964901	59.3744	89.0351	-0.00131961
0.0786856	0.134674	0.00244831	0.134696	-1.0415	2960.35	-0.000184693	-1.61028	8.26148e+08	272949	3	37	0.00526868	0.0391153	0	-1.33841	0.109737	0.0671369	0.402181	2.61102e-06	4.21929e-06	5.95354e-07	2.35127e-06	8.33935e-07	5.78084e-07	0.121397	0.127473	0.222922	1.68111e-05	2.57779e-05	5.17478e-06	3.31434e-05	5.82019e-06	9.66074e-06	7.4229	0.134945	7.42412	1.0415	2.72949e+08	1.50141e+10	1.50165e+10	-88.9585	0.0000000E+000	0.0000000E+000	0.0000000E+000	88.9585	0.0000000E+000	0.0000000E+000	0.0000000E+000	-88.9585	0.0000000E+000	0.0000000E+000	0.0000000E+000	-1.0415	0.0000000E+000	0.0000000E+000	0.0000000E+000	1.0415	55.0068	88.9585	-0.0197321
0.0250094	0.135022	0.000879124	0.135025	-0.373046	3775.06	-0.000200888	-1.70566	7.23879e+09	306859	3	37	0.00526834	0.0390175	0	-1.80829	0.124678	0.115099	0.265683	2.80202e-06	4.32462e-06	1.50979e-06	2.94983e-06	1.03707e-06	1.14612e-06	0.128128	0.131922	0.195914	1.79646e-05	2.50096e-05	9.04036e-06	3.30145e-05	9.35366e-06	7.55975e-06	7.40589	0.0482195	7.40605	0.373046	3.0686e+08	4.71296e+10	4.71306e+10	-89.627	0.0000000E+000	0.0000000E+000	0.0000000E+000	89.627	0.0000000E+000	0.0000000E+000	0.0000000E+000	-89.627	0.0000000E+000	0.0000000E+000	0.0000000E+000	-0.373046	0.0000000E+000	0.0000000E+000	0.0000000E+000	0.373046	153.587	89.627	-0.158433