Folder: Thesis/Python/Experiments/IRFB/240415-Felt-0p5M_FeCl2FeCl23-1M_HCl/Data

File: 240416-EIS-0p5M_FeCl2FeCl3-1M_HCl-05mLmin_Dampened-25mHz_10ppd_C15.mpt
EC-Lab ASCII FILE
Nb header lines : 66

Potentio Electrochemical Impedance Spectroscopy

Run on channel : 15 (SN 19485)
User :
Electrode connection : standard
Potential control : Ewe
Ewe ctrl range : min = -1.00 V, max = 1.00 V
Ewe,I filtering : <None>
Safety Limits :
	Do not start on E overload
Channel : Floating
Acquisition started on : 04/16/2024 14:05:59.642
Loaded Setting File :  NONE
Saved on :
	File : 240416-EIS-0p5M_FeCl2FeCl3-1M_HCl-05mLmin_Dampened-25mHz_10ppd_C15.mpr
	Directory : C:\Data\mathias\IRFB\
	Host : 192.168.0.1
Device : VMP-300 (SN 0826)
Address : USB
EC-Lab for windows v11.52 (software)
Internet server v11.52 (firmware)
Command interpretor v11.52 (firmware)
Electrode material :
Initial state :
Electrolyte :
Comments :
Cable : special
Electrode surface area : 0.001 cm²
Characteristic mass : 0.001 g
Equivalent Weight : 0.000 g/eq.
Density : 0.000 g/cm3
Volume (V) : 0.001 cm³
Record EIS quality indicators
Cycle Definition : Charge/Discharge alternance
Mode                Single sine
E (V)               0.0000
vs.                 Eoc
tE (h:m:s)          0:00:0.0000
record              0
dI                  0.000
unit dI             mA
dt (s)              0.000
fi                  920.000
unit fi             kHz
ff                  25.000
unit ff             mHz
Nd                  10
Points              per decade
spacing             Logarithmic
Va (mV)             5.0
pw                  0.10
Na                  3
corr                0
E range min (V)     -1.000
E range max (V)     1.000
I Range             Auto
Bandwidth           8
nc cycles           0
goto Ns'            0
nr cycles           0
inc. cycle          1

freq/Hz	Re(Z)/Ohm	-Im(Z)/Ohm	|Z|/Ohm	Phase(Z)/deg	time/s	<Ewe>/V	<I>/mA	Cs/µF	Cp/µF	cycle number	I Range	|Ewe|/V	|I|/A	Ns	(Q-Qo)/mA.h	THD Ewe/%	NSD Ewe/%	NSR Ewe/%	|Ewe h2|/V	|Ewe h3|/V	|Ewe h4|/V	|Ewe h5|/V	|Ewe h6|/V	|Ewe h7|/V	THD I/%	NSD I/%	NSR I/%	|I h2|/A	|I h3|/A	|I h4|/A	|I h5|/A	|I h6|/A	|I h7|/A	Re(Y)/Ohm-1	Im(Y)/Ohm-1	|Y|/Ohm-1	Phase(Y)/deg	Re(C)/nF	Im(C)/nF	|C|/nF	Phase(C)/deg	Re(M)	Im(M)	|M|	Phase(M)/deg	Re(Permittivity)	Im(Permittivity)	|Permittivity|	Phase(Permittivity)/deg	Re(Resistivity)/Ohm.cm	Im(Resistivity)/Ohm.cm	|Resistivity|/Ohm.cm	Phase(Resistivity)/deg	Re(Conductivity)/mS/cm	Im(Conductivity)/mS/cm	|Conductivity|/mS/cm	Phase(Conductivity)/deg	Tan(Delta)	Loss Angle(Delta)/deg	dq/mA.h
920001	-0.0976231	-0.220254	0.240919	113.904	1.97748	-7.99263e-05	-0.449186	-0.785433	-0.656468	1	37	0.000709598	0.00294538	0	-0.000264527	-1	-1	-1	0	0	0	0	0	0	-1	-1	-1	0	0	0	0	0	0	-1.68194	-3.79473	4.15078	-113.904	-656.468	-290.967	718.061	156.096	0.0000000E+000	0.0000000E+000	0.0000000E+000	-156.096	0.0000000E+000	0.0000000E+000	0.0000000E+000	156.096	0.0000000E+000	0.0000000E+000	0.0000000E+000	113.904	0.0000000E+000	0.0000000E+000	0.0000000E+000	-113.904	0.443231	23.9044	-0.000264527
292440	0.0733754	-0.0280547	0.0785558	20.9241	7.71548	-7.87146e-05	-0.359368	-19.399	-2.47418	1	37	0.00176519	0.0224706	0	-0.000968819	-1	-1	-1	0	0	0	0	0	0	-1	-1	-1	0	0	0	0	0	0	11.8903	-4.5462	12.7298	-20.9241	-2474.18	6471.09	6927.96	-110.924	0.0000000E+000	0.0000000E+000	0.0000000E+000	110.924	0.0000000E+000	0.0000000E+000	0.0000000E+000	-110.924	0.0000000E+000	0.0000000E+000	0.0000000E+000	20.9241	0.0000000E+000	0.0000000E+000	0.0000000E+000	-20.9241	2.61545	69.0759	-0.000117565
92961.3	0.0850272	-0.00419561	0.0851306	2.82493	13.3205	-0.000100058	-0.433849	-408.059	-0.991153	1	37	0.00523911	0.061542	0	-0.0017471	0.292118	0.162924	6.16767	8.1189e-06	5.77556e-06	3.74872e-06	2.00634e-06	8.6544e-06	3.57187e-06	0.0978659	0.0144215	0.35321	1.0281e-05	5.88035e-05	5.19599e-06	3.29104e-06	2.17065e-06	2.36627e-06	11.7324	-0.578926	11.7467	-2.82493	-991.153	20086.5	20110.9	-92.8249	0.0000000E+000	0.0000000E+000	0.0000000E+000	92.8249	0.0000000E+000	0.0000000E+000	0.0000000E+000	-92.8249	0.0000000E+000	0.0000000E+000	0.0000000E+000	2.82493	0.0000000E+000	0.0000000E+000	0.0000000E+000	-2.82493	20.2658	87.1751	-7.64954e-05
29552	0.0911182	0.0067192	0.0913656	-4.21745	19.0615	-9.8921e-05	-0.416913	801.522	4.33496	1	37	0.00518896	0.0567934	0	-0.00261133	0.377298	0.1735	6.1865	9.92994e-06	7.87655e-06	5.37701e-06	6.69229e-06	2.98691e-06	9.16681e-06	0.129183	0.0183928	0.383984	1.36699e-05	7.10362e-05	4.58776e-06	9.88926e-06	3.03771e-06	4.08474e-06	10.9154	0.804919	10.945	4.21745	4334.96	58785.8	58945.4	-85.7826	0.0000000E+000	0.0000000E+000	0.0000000E+000	85.7826	0.0000000E+000	0.0000000E+000	0.0000000E+000	-85.7826	0.0000000E+000	0.0000000E+000	0.0000000E+000	-4.21745	0.0000000E+000	0.0000000E+000	0.0000000E+000	4.21745	13.5609	85.7826	-0.000185644
9395.12	0.101182	0.0114859	0.101832	-6.47631	24.803	-0.000213058	-1.18331	1474.87	18.7634	1	37	0.00525467	0.0516013	0	-0.0035905	0.305678	0.166513	6.12696	1.63844e-06	6.76211e-06	9.33347e-06	8.14213e-06	4.62972e-06	4.59623e-06	0.121465	0.0512318	0.422271	6.47547e-06	6.07119e-05	7.13329e-06	9.48194e-06	4.76777e-06	4.4792e-06	9.75741	1.10763	9.82007	6.47631	18763.4	165292	166354	-83.5237	0.0000000E+000	0.0000000E+000	0.0000000E+000	83.5237	0.0000000E+000	0.0000000E+000	0.0000000E+000	-83.5237	0.0000000E+000	0.0000000E+000	0.0000000E+000	-6.47631	0.0000000E+000	0.0000000E+000	0.0000000E+000	6.47631	8.80927	83.5237	-0.000272026
2985.95	0.111635	0.0101027	0.112091	-5.17105	31.2557	-0.000212741	-1.02974	5275.94	42.858	1	37	0.00514383	0.0458897	0	-0.00525934	0.302018	0.197031	6.33229	7.53409e-06	4.85011e-06	4.42218e-06	3.66502e-06	6.96896e-06	7.06118e-06	0.0710909	0.033968	0.484892	5.555e-06	2.81584e-05	3.58641e-06	5.7819e-06	6.62885e-06	1.02958e-05	8.88501	0.804072	8.92132	5.17105	42858	473582	475517	-84.829	0.0000000E+000	0.0000000E+000	0.0000000E+000	84.829	0.0000000E+000	0.0000000E+000	0.0000000E+000	-84.829	0.0000000E+000	0.0000000E+000	0.0000000E+000	-5.17105	0.0000000E+000	0.0000000E+000	0.0000000E+000	5.17105	11.05	84.829	-0.000387837
949.092	0.117691	0.00586323	0.117837	-2.85205	37.898	-0.000227449	-0.99913	28600.6	70.8083	1	37	0.00511207	0.0433825	0	-0.00705309	0.306264	0.14619	6.30721	7.41366e-06	4.48845e-06	6.68905e-06	5.01988e-06	4.92201e-06	6.26445e-06	0.035916	0.0938668	0.516418	5.6199e-06	3.56336e-06	3.79705e-06	1.11953e-05	4.61762e-06	4.14884e-06	8.47578	0.422253	8.48629	2.85205	70808.2	1.42132e+06	1.42308e+06	-87.148	0.0000000E+000	0.0000000E+000	0.0000000E+000	87.148	0.0000000E+000	0.0000000E+000	0.0000000E+000	-87.148	0.0000000E+000	0.0000000E+000	0.0000000E+000	-2.85205	0.0000000E+000	0.0000000E+000	0.0000000E+000	2.85205	20.0728	87.148	-0.000275098
301.641	0.120022	0.00303117	0.120061	-1.4467	44.0947	-0.000186961	-0.959115	174068	110.953	1	37	0.00530916	0.0442207	0	-0.0087201	0.254169	0.18194	6.07953	5.22403e-06	7.86695e-06	4.1647e-06	2.47621e-06	5.79125e-06	3.41407e-06	0.063738	0.0166717	0.497951	3.14192e-06	2.21154e-05	3.34043e-06	1.49099e-05	5.47743e-06	3.92673e-06	8.32647	0.210286	8.32913	1.4467	110953	4.3933e+06	4.3947e+06	-88.5533	0.0000000E+000	0.0000000E+000	0.0000000E+000	88.5533	0.0000000E+000	0.0000000E+000	0.0000000E+000	-88.5533	0.0000000E+000	0.0000000E+000	0.0000000E+000	-1.4467	0.0000000E+000	0.0000000E+000	0.0000000E+000	1.4467	39.596	88.5533	-0.000275792
[...]
0.978641	0.125917	0.0050235	0.126017	-2.28462	92.0466	-0.000173458	-1.02034	3.23735e+07	51445.1	1	37	0.00527287	0.0418425	0	-0.0237995	0.102751	0.0650737	1.37886	1.8404e-06	3.99634e-06	1.66059e-06	1.5353e-06	1.4414e-06	8.51435e-07	0.179509	0.314886	0.29687	5.19583e-05	4.01209e-05	1.4371e-05	2.54389e-05	1.00967e-05	9.0937e-06	7.92912	0.316335	7.93543	2.28462	5.14451e+07	1.2895e+09	1.29053e+09	-87.7154	0.0000000E+000	0.0000000E+000	0.0000000E+000	87.7154	0.0000000E+000	0.0000000E+000	0.0000000E+000	-87.7154	0.0000000E+000	0.0000000E+000	0.0000000E+000	-2.28462	0.0000000E+000	0.0000000E+000	0.0000000E+000	2.28462	25.0656	87.7154	-0.00521986
0.311199	0.12863	0.0112168	0.129118	-4.98371	158.994	-0.000152089	-0.748276	4.55947e+07	344095	1	37	0.00526931	0.0408101	0	-0.0358742	0.109261	0.0726938	0.755768	1.41634e-06	4.53583e-06	1.38251e-06	2.05179e-06	1.51372e-06	9.51118e-07	0.250057	0.611674	0.431055	2.70048e-05	7.72445e-05	3.51873e-05	2.22645e-05	1.83343e-05	1.54602e-05	7.71559	0.672816	7.74487	4.98371	3.44095e+08	3.94595e+09	3.96092e+09	-85.0163	0.0000000E+000	0.0000000E+000	0.0000000E+000	85.0163	0.0000000E+000	0.0000000E+000	0.0000000E+000	-85.0163	0.0000000E+000	0.0000000E+000	0.0000000E+000	-4.98371	0.0000000E+000	0.0000000E+000	0.0000000E+000	4.98371	11.4676	85.0163	0.0015279
0.0988834	0.138525	0.026017	0.140947	-10.6371	366.115	-0.000168253	-1.01069	6.18641e+07	2.10787e+06	1	37	0.00526494	0.0373541	0	-0.0954709	0.105039	0.0647811	0.449611	1.9939e-06	4.02706e-06	6.36871e-07	2.27375e-06	1.47346e-06	6.00439e-07	0.812927	0.0746015	0.473967	4.01096e-05	0.000269679	3.5018e-05	9.06909e-05	2.31497e-05	8.2345e-05	6.97296	1.30963	7.09488	10.6371	2.10787e+09	1.12231e+10	1.14194e+10	-79.3629	0.0000000E+000	0.0000000E+000	0.0000000E+000	79.3629	0.0000000E+000	0.0000000E+000	0.0000000E+000	-79.3629	0.0000000E+000	0.0000000E+000	0.0000000E+000	-10.6371	0.0000000E+000	0.0000000E+000	0.0000000E+000	10.6371	5.32439	79.3629	-0.00611835
0.0314526	0.172169	0.0374543	0.176196	-12.2731	1014.28	-0.000142092	-0.918557	1.35102e+08	6.10484e+06	1	37	0.00525337	0.0298155	0	-0.293941	0.113333	0.107977	0.295224	1.44481e-06	4.58626e-06	1.75197e-06	2.48366e-06	6.65571e-07	1.03888e-06	0.188231	0.124477	1.26809	2.39177e-05	2.67076e-05	1.28987e-05	3.4331e-05	9.17932e-06	1.09505e-05	5.54579	1.20645	5.6755	12.2731	6.10484e+09	2.80626e+10	2.8719e+10	-77.7269	0.0000000E+000	0.0000000E+000	0.0000000E+000	77.7269	0.0000000E+000	0.0000000E+000	0.0000000E+000	-77.7269	0.0000000E+000	0.0000000E+000	0.0000000E+000	-12.2731	0.0000000E+000	0.0000000E+000	0.0000000E+000	12.2731	4.59678	77.7269	-0.0791696
0.0250094	0.179831	0.0350745	0.183219	-11.0365	1258.74	-0.000150128	-0.939746	1.81436e+08	6.64914e+06	1	37	0.00524997	0.028654	0	-0.376016	0.127788	0.181501	0.267076	2.55333e-06	5.46887e-06	9.86011e-07	2.0229e-06	1.06116e-06	1.17321e-06	0.201935	0.179138	1.35574	2.40482e-05	4.14319e-05	1.09495e-05	2.70301e-05	1.09129e-05	5.42188e-06	5.357	1.04484	5.45794	11.0365	6.64914e+09	3.40908e+10	3.47332e+10	-78.9635	0.0000000E+000	0.0000000E+000	0.0000000E+000	78.9635	0.0000000E+000	0.0000000E+000	0.0000000E+000	-78.9635	0.0000000E+000	0.0000000E+000	0.0000000E+000	-11.0365	0.0000000E+000	0.0000000E+000	0.0000000E+000	11.0365	5.1271	78.9635	-0.0820749

File: 240416-EIS-0p5M_FeCl2FeCl3-1M_HCl-10mLmin_Dampened-25mHz_10ppd_C15.mpt
EC-Lab ASCII FILE
Nb header lines : 66

Potentio Electrochemical Impedance Spectroscopy

Run on channel : 15 (SN 19485)
User :
Electrode connection : standard
Potential control : Ewe
Ewe ctrl range : min = -1.00 V, max = 1.00 V
Ewe,I filtering : <None>
Safety Limits :
	Do not start on E overload
Channel : Floating
Acquisition started on : 04/16/2024 14:28:58.615
Loaded Setting File :  NONE
Saved on :
	File : 240416-EIS-0p5M_FeCl2FeCl3-1M_HCl-10mLmin_Dampened-25mHz_10ppd_C15.mpr
	Directory : C:\Data\mathias\IRFB\
	Host : 192.168.0.1
Device : VMP-300 (SN 0826)
Address : USB
EC-Lab for windows v11.52 (software)
Internet server v11.52 (firmware)
Command interpretor v11.52 (firmware)
Electrode material :
Initial state :
Electrolyte :
Comments :
Cable : special
Electrode surface area : 0.001 cm²
Characteristic mass : 0.001 g
Equivalent Weight : 0.000 g/eq.
Density : 0.000 g/cm3
Volume (V) : 0.001 cm³
Record EIS quality indicators
Cycle Definition : Charge/Discharge alternance
Mode                Single sine
E (V)               0.0000
vs.                 Eoc
tE (h:m:s)          0:00:0.0000
record              0
dI                  0.000
unit dI             mA
dt (s)              0.000
fi                  920.000
unit fi             kHz
ff                  25.000
unit ff             mHz
Nd                  10
Points              per decade
spacing             Logarithmic
Va (mV)             5.0
pw                  0.10
Na                  3
corr                0
E range min (V)     -1.000
E range max (V)     1.000
I Range             Auto
Bandwidth           8
nc cycles           0
goto Ns'            0
nr cycles           0
inc. cycle          1

freq/Hz	Re(Z)/Ohm	-Im(Z)/Ohm	|Z|/Ohm	Phase(Z)/deg	time/s	<Ewe>/V	<I>/mA	Cs/µF	Cp/µF	cycle number	I Range	|Ewe|/V	|I|/A	Ns	(Q-Qo)/mA.h	THD Ewe/%	NSD Ewe/%	NSR Ewe/%	|Ewe h2|/V	|Ewe h3|/V	|Ewe h4|/V	|Ewe h5|/V	|Ewe h6|/V	|Ewe h7|/V	THD I/%	NSD I/%	NSR I/%	|I h2|/A	|I h3|/A	|I h4|/A	|I h5|/A	|I h6|/A	|I h7|/A	Re(Y)/Ohm-1	Im(Y)/Ohm-1	|Y|/Ohm-1	Phase(Y)/deg	Re(C)/nF	Im(C)/nF	|C|/nF	Phase(C)/deg	Re(M)	Im(M)	|M|	Phase(M)/deg	Re(Permittivity)	Im(Permittivity)	|Permittivity|	Phase(Permittivity)/deg	Re(Resistivity)/Ohm.cm	Im(Resistivity)/Ohm.cm	|Resistivity|/Ohm.cm	Phase(Resistivity)/deg	Re(Conductivity)/mS/cm	Im(Conductivity)/mS/cm	|Conductivity|/mS/cm	Phase(Conductivity)/deg	Tan(Delta)	Loss Angle(Delta)/deg	dq/mA.h
920001	-0.0964315	-0.222553	0.242546	113.427	1.97648	-5.15178e-05	-0.50502	-0.777319	-0.654448	1	37	0.000714448	0.00294561	0	-0.00028426	-1	-1	-1	0	0	0	0	0	0	-1	-1	-1	0	0	0	0	0	0	-1.63919	-3.78306	4.12292	-113.427	-654.448	-283.571	713.243	156.573	0.0000000E+000	0.0000000E+000	0.0000000E+000	-156.573	0.0000000E+000	0.0000000E+000	0.0000000E+000	156.573	0.0000000E+000	0.0000000E+000	0.0000000E+000	113.427	0.0000000E+000	0.0000000E+000	0.0000000E+000	-113.427	0.433297	23.427	-0.00028426
292440	0.0733761	-0.0283891	0.0786765	21.1514	7.71748	-5.04367e-05	-0.442486	-19.1704	-2.496	1	37	0.0017687	0.0224806	0	-0.00103345	-1	-1	-1	0	0	0	0	0	0	-1	-1	-1	0	0	0	0	0	0	11.854	-4.58629	12.7103	-21.1514	-2496	6451.31	6917.33	-111.151	0.0000000E+000	0.0000000E+000	0.0000000E+000	111.151	0.0000000E+000	0.0000000E+000	0.0000000E+000	-111.151	0.0000000E+000	0.0000000E+000	0.0000000E+000	21.1514	0.0000000E+000	0.0000000E+000	0.0000000E+000	-21.1514	2.58466	68.8486	-0.000127717
92961.3	0.0847712	-0.00438171	0.0848843	2.95891	13.3235	-5.7986e-05	-0.505391	-390.727	-1.04113	1	37	0.00524412	0.0617797	0	-0.0017983	0.343651	0.151602	6.14836	1.00115e-05	5.46432e-06	7.51802e-06	7.77002e-06	6.25403e-06	3.11948e-06	0.0954915	0.0184378	0.35619	1.20415e-05	5.70768e-05	4.0479e-06	3.00201e-06	3.65875e-06	3.00084e-06	11.765	-0.608119	11.7807	-2.95891	-1041.14	20142.4	20169.3	-92.9589	0.0000000E+000	0.0000000E+000	0.0000000E+000	92.9589	0.0000000E+000	0.0000000E+000	0.0000000E+000	-92.9589	0.0000000E+000	0.0000000E+000	0.0000000E+000	2.95891	0.0000000E+000	0.0000000E+000	0.0000000E+000	-2.95891	19.3466	87.0411	-0.000240173
29552	0.0906848	0.00642571	0.0909121	-4.05307	19.0635	-4.10976e-05	-0.415926	838.13	4.18707	1	37	0.00519319	0.0571232	0	-0.00234873	0.366415	0.143311	6.33034	8.1991e-06	1.09492e-05	5.15647e-06	6.19955e-06	6.57711e-06	6.09428e-06	0.127834	0.0199463	0.384609	8.86197e-06	7.16351e-05	1.5186e-06	9.76105e-06	3.50318e-06	2.21667e-06	10.9721	0.777459	10.9996	4.05307	4187.07	59091.3	59239.4	-85.9469	0.0000000E+000	0.0000000E+000	0.0000000E+000	85.9469	0.0000000E+000	0.0000000E+000	0.0000000E+000	-85.9469	0.0000000E+000	0.0000000E+000	0.0000000E+000	-4.05307	0.0000000E+000	0.0000000E+000	0.0000000E+000	4.05307	14.1128	85.9469	-0.000139439
9395.12	0.100484	0.0112216	0.101109	-6.37213	24.807	-0.000170166	-1.27009	1509.6	18.5949	1	37	0.00524744	0.0518989	0	-0.00357454	0.310126	0.179333	6.15536	3.31614e-06	7.29744e-06	5.92407e-06	4.64045e-06	7.60075e-06	7.27341e-06	0.121779	0.0517099	0.42773	1.07592e-05	6.08396e-05	6.19048e-06	9.2139e-06	3.57037e-06	3.23404e-06	9.82922	1.09768	9.89033	6.37213	18594.9	166509	167544	-83.6279	0.0000000E+000	0.0000000E+000	0.0000000E+000	83.6279	0.0000000E+000	0.0000000E+000	0.0000000E+000	-83.6279	0.0000000E+000	0.0000000E+000	0.0000000E+000	-6.37213	0.0000000E+000	0.0000000E+000	0.0000000E+000	6.37213	8.95452	83.6279	-0.000395664
2985.95	0.110682	0.0100201	0.111134	-5.17294	31.2587	-0.000180623	-1.19099	5319.42	43.2428	1	37	0.00516836	0.0465056	0	-0.00550166	0.319544	0.169183	6.32259	4.7652e-06	5.43937e-06	8.34649e-06	5.17099e-06	6.70049e-06	7.10379e-06	0.06775	0.0382491	0.485221	8.8374e-06	2.76784e-05	3.69633e-06	8.24444e-06	4.26787e-06	4.77822e-06	8.96148	0.811291	8.99813	5.17294	43242.8	477658	479611	-84.8271	0.0000000E+000	0.0000000E+000	0.0000000E+000	84.8271	0.0000000E+000	0.0000000E+000	0.0000000E+000	-84.8271	0.0000000E+000	0.0000000E+000	0.0000000E+000	-5.17294	0.0000000E+000	0.0000000E+000	0.0000000E+000	5.17294	11.0459	84.8271	-0.000460159
949.092	0.116733	0.00587438	0.116881	-2.88088	37.9009	-0.000177361	-1.17307	28546.3	72.1089	1	37	0.00508591	0.0435137	0	-0.00766135	0.340607	0.14715	6.40831	8.12762e-06	5.08124e-06	4.44694e-06	8.03068e-06	4.94106e-06	7.8329e-06	0.0438469	0.0951753	0.523088	7.25282e-06	7.75344e-06	4.09747e-06	1.32072e-05	5.66709e-06	3.18806e-06	8.54492	0.430008	8.55574	2.88088	72108.9	1.43291e+06	1.43473e+06	-87.1191	0.0000000E+000	0.0000000E+000	0.0000000E+000	87.1191	0.0000000E+000	0.0000000E+000	0.0000000E+000	-87.1191	0.0000000E+000	0.0000000E+000	0.0000000E+000	-2.88088	0.0000000E+000	0.0000000E+000	0.0000000E+000	2.88088	19.8715	87.1191	-0.000424643
301.641	0.119142	0.00290579	0.119177	-1.39713	44.3157	-0.000153259	-1.25167	181579	107.946	1	37	0.00501848	0.0421094	0	-0.00976094	0.424049	0.124169	6.46592	4.60188e-06	8.12872e-06	4.10196e-06	7.24395e-06	1.01663e-05	1.1967e-05	0.0761619	0.0296064	0.524109	7.6526e-06	2.42818e-05	7.15113e-06	1.26999e-05	7.50506e-06	4.0701e-06	8.38838	0.204587	8.39087	1.39713	107946	4.42596e+06	4.42728e+06	-88.6029	0.0000000E+000	0.0000000E+000	0.0000000E+000	88.6029	0.0000000E+000	0.0000000E+000	0.0000000E+000	-88.6029	0.0000000E+000	0.0000000E+000	0.0000000E+000	-1.39713	0.0000000E+000	0.0000000E+000	0.0000000E+000	1.39713	41.0015	88.6029	-0.000414824
[...]
0.978641	0.124429	0.00442472	0.124508	-2.03659	92.0456	-0.000156172	-1.1532	3.67546e+07	46418.3	1	37	0.00542657	0.0435842	0	-0.0246202	0.13973	0.0582902	1.35324	1.60375e-06	6.13961e-06	2.42096e-06	2.14877e-06	1.35361e-06	9.0278e-07	0.171192	0.149662	0.296462	5.0209e-05	4.44063e-05	1.32467e-05	2.41534e-05	1.36128e-05	7.38298e-06	8.02656	0.285426	8.03163	2.03659	4.64184e+07	1.30535e+09	1.30617e+09	-87.9634	0.0000000E+000	0.0000000E+000	0.0000000E+000	87.9634	0.0000000E+000	0.0000000E+000	0.0000000E+000	-87.9634	0.0000000E+000	0.0000000E+000	0.0000000E+000	-2.03659	0.0000000E+000	0.0000000E+000	0.0000000E+000	2.03659	28.1214	87.9634	-0.000582917
0.311199	0.127281	0.0103578	0.127702	-4.65235	158.993	-0.000151979	-1.08019	4.93757e+07	324831	1	37	0.0054255	0.0424857	0	-0.052211	0.12431	0.0808892	0.7428	1.52682e-06	5.23997e-06	1.92216e-06	2.71054e-06	1.01556e-06	1.45505e-06	0.21448	0.466499	0.329799	3.31842e-05	3.95824e-05	3.94579e-05	4.08172e-05	3.80352e-05	1.95715e-05	7.80495	0.635149	7.83075	4.65235	3.24831e+08	3.99165e+09	4.00484e+09	-85.3476	0.0000000E+000	0.0000000E+000	0.0000000E+000	85.3476	0.0000000E+000	0.0000000E+000	0.0000000E+000	-85.3476	0.0000000E+000	0.0000000E+000	0.0000000E+000	-4.65235	0.0000000E+000	0.0000000E+000	0.0000000E+000	4.65235	12.2884	85.3476	-0.00860298
0.0988834	0.140776	0.0220057	0.142486	-8.88439	366.115	-0.00015118	-1.0563	7.31411e+07	1.74457e+06	1	37	0.00541973	0.0380369	0	-0.122124	0.116339	0.107685	0.429234	1.8887e-06	4.98131e-06	1.56656e-06	2.28987e-06	1.26132e-06	9.34272e-07	0.439689	0.14405	0.501778	2.40902e-05	2.54246e-05	1.31253e-05	4.57789e-05	3.40334e-05	0.000150202	6.93403	1.08391	7.01824	8.88439	1.74457e+09	1.11605e+10	1.1296e+10	-81.1156	0.0000000E+000	0.0000000E+000	0.0000000E+000	81.1156	0.0000000E+000	0.0000000E+000	0.0000000E+000	-81.1156	0.0000000E+000	0.0000000E+000	0.0000000E+000	-8.88439	0.0000000E+000	0.0000000E+000	0.0000000E+000	8.88439	6.39727	81.1156	-0.0317159
0.0314526	0.1624	0.0153748	0.163127	-5.40821	1014.28	-0.000127073	-0.976296	3.2912e+08	2.92365e+06	1	37	0.00541104	0.0331708	0	-0.250504	0.121693	0.108584	0.273328	1.44648e-06	5.42016e-06	1.98165e-06	2.4218e-06	4.53257e-07	1.08537e-06	0.132311	0.112458	0.841935	4.25373e-06	3.19634e-05	1.05571e-05	2.60697e-05	6.98023e-06	4.71738e-06	6.10292	0.577778	6.13021	5.40821	2.92365e+09	3.08818e+10	3.10198e+10	-84.5918	0.0000000E+000	0.0000000E+000	0.0000000E+000	84.5918	0.0000000E+000	0.0000000E+000	0.0000000E+000	-84.5918	0.0000000E+000	0.0000000E+000	0.0000000E+000	-5.40821	0.0000000E+000	0.0000000E+000	0.0000000E+000	5.40821	10.5627	84.5918	-0.0420071
0.0250094	0.164875	0.0137951	0.165451	-4.78281	1258.74	-0.000134589	-0.956998	4.61309e+08	3.20704e+06	1	37	0.00541261	0.0327144	0	-0.330598	0.136048	0.105765	0.25947	2.18334e-06	5.37212e-06	1.62325e-06	3.4396e-06	1.5769e-06	1.00652e-06	0.17133	0.0957744	0.851694	1.63357e-05	3.81442e-05	1.10614e-05	3.0792e-05	5.96137e-06	4.7268e-06	6.02305	0.50395	6.0441	4.78281	3.20703e+09	3.83295e+10	3.84634e+10	-85.2172	0.0000000E+000	0.0000000E+000	0.0000000E+000	85.2172	0.0000000E+000	0.0000000E+000	0.0000000E+000	-85.2172	0.0000000E+000	0.0000000E+000	0.0000000E+000	-4.78281	0.0000000E+000	0.0000000E+000	0.0000000E+000	4.78281	11.9517	85.2172	-0.0800941