Folder: Thesis/Python/Experiments/IRFB/240415-Felt-0p5M_FeCl2FeCl23-1M_HCl/Data (part 3)

File: 240417-EIS-0p5M_FeCl2FeCl3-1M_HCl-10mLmin_Dampened-10mHz_10ppd_C15.mpt
EC-Lab ASCII FILE
Nb header lines : 66

Potentio Electrochemical Impedance Spectroscopy

Run on channel : 15 (SN 19485)
User :
Electrode connection : standard
Potential control : Ewe
Ewe ctrl range : min = -1.00 V, max = 1.00 V
Ewe,I filtering : <None>
Safety Limits :
	Do not start on E overload
Channel : Floating
Acquisition started on : 04/17/2024 10:15:20.290
Loaded Setting File :  NONE
Saved on :
	File : 240417-EIS-0p5M_FeCl2FeCl3-1M_HCl-10mLmin_Dampened-10mHz_10ppd_C15.mpr
	Directory : C:\Data\mathias\IRFB\
	Host : 192.168.0.1
Device : VMP-300 (SN 0826)
Address : USB
EC-Lab for windows v11.52 (software)
Internet server v11.52 (firmware)
Command interpretor v11.52 (firmware)
Electrode material :
Initial state :
Electrolyte :
Comments :
Cable : special
Electrode surface area : 0.001 cm²
Characteristic mass : 0.001 g
Equivalent Weight : 0.000 g/eq.
Density : 0.000 g/cm3
Volume (V) : 0.001 cm³
Record EIS quality indicators
Cycle Definition : Charge/Discharge alternance
Mode                Single sine
E (V)               0.0000
vs.                 Eoc
tE (h:m:s)          0:00:0.0000
record              0
dI                  0.000
unit dI             mA
dt (s)              0.000
fi                  920.000
unit fi             kHz
ff                  10.000
unit ff             mHz
Nd                  10
Points              per decade
spacing             Logarithmic
Va (mV)             5.0
pw                  0.10
Na                  3
corr                0
E range min (V)     -1.000
E range max (V)     1.000
I Range             Auto
Bandwidth           8
nc cycles           0
goto Ns'            0
nr cycles           0
inc. cycle          1

freq/Hz	Re(Z)/Ohm	-Im(Z)/Ohm	|Z|/Ohm	Phase(Z)/deg	time/s	<Ewe>/V	<I>/mA	Cs/µF	Cp/µF	cycle number	I Range	|Ewe|/V	|I|/A	Ns	(Q-Qo)/mA.h	THD Ewe/%	NSD Ewe/%	NSR Ewe/%	|Ewe h2|/V	|Ewe h3|/V	|Ewe h4|/V	|Ewe h5|/V	|Ewe h6|/V	|Ewe h7|/V	THD I/%	NSD I/%	NSR I/%	|I h2|/A	|I h3|/A	|I h4|/A	|I h5|/A	|I h6|/A	|I h7|/A	Re(Y)/Ohm-1	Im(Y)/Ohm-1	|Y|/Ohm-1	Phase(Y)/deg	Re(C)/nF	Im(C)/nF	|C|/nF	Phase(C)/deg	Re(M)	Im(M)	|M|	Phase(M)/deg	Re(Permittivity)	Im(Permittivity)	|Permittivity|	Phase(Permittivity)/deg	Re(Resistivity)/Ohm.cm	Im(Resistivity)/Ohm.cm	|Resistivity|/Ohm.cm	Phase(Resistivity)/deg	Re(Conductivity)/mS/cm	Im(Conductivity)/mS/cm	|Conductivity|/mS/cm	Phase(Conductivity)/deg	Tan(Delta)	Loss Angle(Delta)/deg	dq/mA.h
920001	-0.0949472	-0.223118	0.24248	113.052	1.97648	-0.000133984	-1.04374	-0.775348	-0.656469	1	37	0.000713896	0.00294414	0	-0.000563603	-1	-1	-1	0	0	0	0	0	0	-1	-1	-1	0	0	0	0	0	0	-1.61484	-3.79474	4.12405	-113.052	-656.469	-279.358	713.437	156.948	0.0000000E+000	0.0000000E+000	0.0000000E+000	-156.948	0.0000000E+000	0.0000000E+000	0.0000000E+000	156.948	0.0000000E+000	0.0000000E+000	0.0000000E+000	113.052	0.0000000E+000	0.0000000E+000	0.0000000E+000	-113.052	0.425546	23.052	-0.000563603
232547	0.0768251	-0.0222433	0.0799804	16.1474	8.86149	-0.000144721	-1.03624	-30.7687	-2.37981	1	37	0.0025925	0.0324142	0	-0.00263367	-1	-1	-1	0	0	0	0	0	0	-1	-1	-1	0	0	0	0	0	0	12.0098	-3.47723	12.5031	-16.1474	-2379.81	8219.5	8557.08	-106.147	0.0000000E+000	0.0000000E+000	0.0000000E+000	106.147	0.0000000E+000	0.0000000E+000	0.0000000E+000	-106.147	0.0000000E+000	0.0000000E+000	0.0000000E+000	16.1474	0.0000000E+000	0.0000000E+000	0.0000000E+000	-16.1474	3.45385	73.8526	-0.000356008
58779.3	0.0852271	0.000283284	0.0852276	-0.190443	15.6125	-0.000146679	-1.06641	9558.15	0.105598	1	37	0.00521809	0.0612254	0	-0.00457674	0.332288	0.133703	6.14073	5.43892e-06	9.03415e-06	6.66707e-06	6.99806e-06	4.06336e-06	5.9218e-06	0.112198	0.0191057	0.353081	7.70541e-06	6.76934e-05	3.21922e-06	1.66128e-06	4.92674e-06	5.42069e-06	11.7332	0.0389997	11.7333	0.190443	105.599	31769.7	31769.9	-89.8096	0.0000000E+000	0.0000000E+000	0.0000000E+000	89.8096	0.0000000E+000	0.0000000E+000	0.0000000E+000	-89.8096	0.0000000E+000	0.0000000E+000	0.0000000E+000	-0.190443	0.0000000E+000	0.0000000E+000	0.0000000E+000	0.190443	300.854	89.8096	-0.000308218
14854.9	0.0941059	0.0105112	0.0946911	-6.37325	22.5005	-0.000159951	-1.13371	1019.29	12.5598	1	37	0.00517793	0.0546823	0	-0.00629834	0.32485	0.161654	6.20045	4.84385e-06	6.86823e-06	7.67639e-06	4.33183e-06	6.05758e-06	8.8433e-06	0.118446	0.0235811	0.397192	5.9355e-06	6.32192e-05	5.53993e-06	8.15564e-06	4.58601e-06	4.22203e-06	10.4954	1.17229	10.5607	6.37325	12559.8	112447	113147	-83.6267	0.0000000E+000	0.0000000E+000	0.0000000E+000	83.6267	0.0000000E+000	0.0000000E+000	0.0000000E+000	-83.6267	0.0000000E+000	0.0000000E+000	0.0000000E+000	-6.37325	0.0000000E+000	0.0000000E+000	0.0000000E+000	6.37325	8.95293	83.6267	-0.000394084
3756.2	0.108314	0.013568	0.10916	-7.13998	29.9217	-0.000276418	-1.86718	3122.88	48.2454	1	37	0.00516961	0.0473579	0	-0.00966847	0.336054	0.171424	6.30473	6.78766e-06	6.99108e-06	6.58599e-06	8.4432e-06	4.6756e-06	5.25695e-06	0.0786322	0.0282395	0.458178	3.89571e-06	3.53683e-05	1.98353e-06	6.19259e-06	4.84597e-06	4.25545e-06	9.08979	1.13864	9.16083	7.13998	48245.4	385146	388156	-82.86	0.0000000E+000	0.0000000E+000	0.0000000E+000	82.86	0.0000000E+000	0.0000000E+000	0.0000000E+000	-82.86	0.0000000E+000	0.0000000E+000	0.0000000E+000	-7.13998	0.0000000E+000	0.0000000E+000	0.0000000E+000	7.13998	7.98306	82.86	-0.000655827
949.092	0.119977	0.00893419	0.120309	-4.25872	37.891	-0.00028229	-1.83472	18769.7	103.507	1	37	0.00504954	0.0419714	0	-0.0136788	0.292803	0.185761	6.4933	5.91638e-06	9.6851e-06	4.1038e-06	4.91245e-06	3.17793e-06	5.3245e-06	0.0451193	0.0878663	0.5249	6.32009e-06	8.14975e-06	5.55304e-06	1.23782e-05	5.12796e-06	5.13587e-06	8.28897	0.617246	8.31192	4.25872	103507	1.38999e+06	1.39384e+06	-85.7413	0.0000000E+000	0.0000000E+000	0.0000000E+000	85.7413	0.0000000E+000	0.0000000E+000	0.0000000E+000	-85.7413	0.0000000E+000	0.0000000E+000	0.0000000E+000	-4.25872	0.0000000E+000	0.0000000E+000	0.0000000E+000	4.25872	13.429	85.7413	-0.00075163
239.924	0.124729	0.00401043	0.124793	-1.84161	45.1948	-0.000239267	-1.75644	165408	170.826	1	37	0.00549394	0.0440243	0	-0.0172411	0.312236	0.155454	6.02511	4.46559e-06	7.28823e-06	7.36574e-06	2.2802e-06	9.63377e-06	7.02778e-06	0.0736807	0.0188336	0.494396	4.67623e-06	2.65666e-05	3.6758e-06	1.53148e-05	6.36795e-06	3.96913e-06	8.00911	0.257518	8.01325	1.84161	170826	5.3129e+06	5.31564e+06	-88.1584	0.0000000E+000	0.0000000E+000	0.0000000E+000	88.1584	0.0000000E+000	0.0000000E+000	0.0000000E+000	-88.1584	0.0000000E+000	0.0000000E+000	0.0000000E+000	-1.84161	0.0000000E+000	0.0000000E+000	0.0000000E+000	1.84161	31.1011	88.1584	-0.000528778
60.6403	0.12605	0.00184318	0.126063	-0.837758	52.0307	-0.000231997	-1.70226	1.42393e+06	304.404	1	37	0.00510327	0.0404819	0	-0.0205664	0.29295	0.164036	6.25825	4.96836e-06	7.64494e-06	3.67911e-06	4.77352e-06	7.08482e-06	6.26376e-06	0.108336	0.0307465	0.54108	4.44649e-06	3.18044e-05	6.89702e-06	2.78451e-05	3.19057e-06	6.12953e-06	7.93169	0.115982	7.93254	0.837758	304405	2.08173e+07	2.08195e+07	-89.1622	0.0000000E+000	0.0000000E+000	0.0000000E+000	89.1622	0.0000000E+000	0.0000000E+000	0.0000000E+000	-89.1622	0.0000000E+000	0.0000000E+000	0.0000000E+000	-0.837758	0.0000000E+000	0.0000000E+000	0.0000000E+000	0.837758	68.3869	89.1622	-0.00058933
[...]
0.979744	0.129215	0.00357243	0.129264	-1.58367	92.017	-0.000235007	-1.71888	4.5472e+07	34730.9	1	37	0.00511519	0.0395717	0	-0.0410394	0.124383	0.0745379	1.42411	2.49947e-06	4.15152e-06	2.24391e-06	2.7914e-06	8.25384e-07	8.78644e-07	0.176562	0.170284	0.28452	5.17467e-05	3.42068e-05	1.243e-05	2.35668e-05	8.82614e-06	7.69378e-06	7.73315	0.2138	7.73611	1.58367	3.47308e+07	1.25622e+09	1.2567e+09	-88.4163	0.0000000E+000	0.0000000E+000	0.0000000E+000	88.4163	0.0000000E+000	0.0000000E+000	0.0000000E+000	-88.4163	0.0000000E+000	0.0000000E+000	0.0000000E+000	-1.58367	0.0000000E+000	0.0000000E+000	0.0000000E+000	1.58367	36.17	88.4163	-0.00626431
0.247537	0.131831	0.010082	0.132216	-4.37326	183.906	-0.000225651	-1.65918	6.37729e+07	370816	1	37	0.0051132	0.0386731	0	-0.0748031	0.110337	0.0835474	0.708899	1.72792e-06	3.70378e-06	1.69847e-06	2.17824e-06	1.72865e-06	1.35552e-06	0.270969	0.181543	0.402679	8.4607e-05	3.229e-05	3.16495e-05	3.04982e-05	1.63508e-05	8.60268e-06	7.54137	0.576736	7.56339	4.37326	3.70816e+08	4.84876e+09	4.86292e+09	-85.6267	0.0000000E+000	0.0000000E+000	0.0000000E+000	85.6267	0.0000000E+000	0.0000000E+000	0.0000000E+000	-85.6267	0.0000000E+000	0.0000000E+000	0.0000000E+000	-4.37326	0.0000000E+000	0.0000000E+000	0.0000000E+000	4.37326	13.0759	85.6267	-0.00800462
0.062544	0.150668	0.02001	0.151991	-7.56508	541.792	-0.00022347	-1.6252	1.27171e+08	2.20416e+06	1	37	0.00510579	0.0335927	0	-0.224331	0.105122	0.120759	0.384405	2.41048e-06	3.5156e-06	1.05929e-06	1.90167e-06	1.105e-06	5.13026e-07	0.159595	0.123161	0.646552	2.33039e-05	2.41177e-05	1.4409e-05	3.4189e-05	7.63062e-06	8.15872e-06	6.52206	0.866183	6.57933	7.56508	2.20416e+09	1.65966e+10	1.67423e+10	-82.4349	0.0000000E+000	0.0000000E+000	0.0000000E+000	82.4349	0.0000000E+000	0.0000000E+000	0.0000000E+000	-82.4349	0.0000000E+000	0.0000000E+000	0.0000000E+000	-7.56508	0.0000000E+000	0.0000000E+000	0.0000000E+000	7.56508	7.52966	82.4349	-0.0305527
0.0158201	0.163828	0.00802292	0.164024	-2.80363	1951.86	-0.000234559	-1.77137	1.25394e+09	3.00004e+06	1	37	0.00510538	0.0311258	0	-0.93385	0.124624	0.150964	0.240362	2.46679e-06	4.00444e-06	1.09337e-06	2.57837e-06	1.59631e-06	1.06099e-06	0.166993	0.262498	0.75914	1.55996e-05	2.95124e-05	1.1583e-05	3.20318e-05	6.32981e-06	8.10175e-06	6.08937	0.298206	6.09666	2.80363	3.00004e+09	6.12608e+10	6.13342e+10	-87.1964	0.0000000E+000	0.0000000E+000	0.0000000E+000	87.1964	0.0000000E+000	0.0000000E+000	0.0000000E+000	-87.1964	0.0000000E+000	0.0000000E+000	0.0000000E+000	-2.80363	0.0000000E+000	0.0000000E+000	0.0000000E+000	2.80363	20.42	87.1964	-0.16014
0.0100037	0.164934	0.00516236	0.165015	-1.79274	3048.2	-0.000229576	-1.60811	3.08183e+09	3.01619e+06	1	37	0.0051028	0.0309232	0	-1.29743	0.149728	0.28274	0.224523	3.41815e-06	5.07735e-06	1.25623e-06	2.72213e-06	1.16579e-06	1.34405e-06	0.181497	0.191118	0.75591	1.85816e-05	4.00439e-05	7.02561e-06	2.89597e-05	5.27193e-06	8.74361e-06	6.05708	0.189584	6.06005	1.79274	3.0162e+09	9.63654e+10	9.64126e+10	-88.2073	0.0000000E+000	0.0000000E+000	0.0000000E+000	88.2073	0.0000000E+000	0.0000000E+000	0.0000000E+000	-88.2073	0.0000000E+000	0.0000000E+000	0.0000000E+000	-1.79274	0.0000000E+000	0.0000000E+000	0.0000000E+000	1.79274	31.9494	88.2073	-0.195131

File: 240417-EIS-0p5M_FeCl2FeCl3-1M_HCl-100mLmin_Dampened-25mHz_10ppd_C15.mpt
EC-Lab ASCII FILE
Nb header lines : 66

Potentio Electrochemical Impedance Spectroscopy

Run on channel : 15 (SN 19485)
User :
Electrode connection : standard
Potential control : Ewe
Ewe ctrl range : min = -1.00 V, max = 1.00 V
Ewe,I filtering : <None>
Safety Limits :
	Do not start on E overload
Channel : Floating
Acquisition started on : 04/17/2024 11:38:39.798
Loaded Setting File :  NONE
Saved on :
	File : 240417-EIS-0p5M_FeCl2FeCl3-1M_HCl-100mLmin_Dampened-25mHz_10ppd_C15.mpr
	Directory : C:\Data\mathias\IRFB\
	Host : 192.168.0.1
Device : VMP-300 (SN 0826)
Address : USB
EC-Lab for windows v11.52 (software)
Internet server v11.52 (firmware)
Command interpretor v11.52 (firmware)
Electrode material :
Initial state :
Electrolyte :
Comments :
Cable : special
Electrode surface area : 0.001 cm²
Characteristic mass : 0.001 g
Equivalent Weight : 0.000 g/eq.
Density : 0.000 g/cm3
Volume (V) : 0.001 cm³
Record EIS quality indicators
Cycle Definition : Charge/Discharge alternance
Mode                Single sine
E (V)               0.0000
vs.                 Eoc
tE (h:m:s)          0:00:0.0000
record              0
dI                  0.000
unit dI             mA
dt (s)              0.000
fi                  920.000
unit fi             kHz
ff                  25.000
unit ff             mHz
Nd                  10
Points              per decade
spacing             Logarithmic
Va (mV)             5.0
pw                  0.10
Na                  3
corr                0
E range min (V)     -1.000
E range max (V)     1.000
I Range             Auto
Bandwidth           8
nc cycles           0
goto Ns'            0
nr cycles           0
inc. cycle          1

freq/Hz	Re(Z)/Ohm	-Im(Z)/Ohm	|Z|/Ohm	Phase(Z)/deg	time/s	<Ewe>/V	<I>/mA	Cs/µF	Cp/µF	cycle number	I Range	|Ewe|/V	|I|/A	Ns	(Q-Qo)/mA.h	THD Ewe/%	NSD Ewe/%	NSR Ewe/%	|Ewe h2|/V	|Ewe h3|/V	|Ewe h4|/V	|Ewe h5|/V	|Ewe h6|/V	|Ewe h7|/V	THD I/%	NSD I/%	NSR I/%	|I h2|/A	|I h3|/A	|I h4|/A	|I h5|/A	|I h6|/A	|I h7|/A	Re(Y)/Ohm-1	Im(Y)/Ohm-1	|Y|/Ohm-1	Phase(Y)/deg	Re(C)/nF	Im(C)/nF	|C|/nF	Phase(C)/deg	Re(M)	Im(M)	|M|	Phase(M)/deg	Re(Permittivity)	Im(Permittivity)	|Permittivity|	Phase(Permittivity)/deg	Re(Resistivity)/Ohm.cm	Im(Resistivity)/Ohm.cm	|Resistivity|/Ohm.cm	Phase(Resistivity)/deg	Re(Conductivity)/mS/cm	Im(Conductivity)/mS/cm	|Conductivity|/mS/cm	Phase(Conductivity)/deg	Tan(Delta)	Loss Angle(Delta)/deg	dq/mA.h
920001	-0.0952955	-0.222722	0.242252	113.165	1.97648	-0.000135792	-1.24379	-0.776728	-0.656536	1	37	0.000714159	0.002948	0	-0.000640867	-1	-1	-1	0	0	0	0	0	0	-1	-1	-1	0	0	0	0	0	0	-1.62381	-3.79513	4.12792	-113.165	-656.536	-280.91	714.108	156.835	0.0000000E+000	0.0000000E+000	0.0000000E+000	-156.835	0.0000000E+000	0.0000000E+000	0.0000000E+000	156.835	0.0000000E+000	0.0000000E+000	0.0000000E+000	113.165	0.0000000E+000	0.0000000E+000	0.0000000E+000	-113.165	0.427868	23.1645	-0.000640867
292440	0.0727548	-0.0289668	0.0783092	21.7096	7.71048	-0.000132456	-1.14843	-18.7881	-2.57074	1	37	0.00176103	0.0224882	0	-0.00251215	-1	-1	-1	0	0	0	0	0	0	-1	-1	-1	0	0	0	0	0	0	11.8641	-4.72362	12.7699	-21.7096	-2570.74	6456.83	6949.77	-111.71	0.0000000E+000	0.0000000E+000	0.0000000E+000	111.71	0.0000000E+000	0.0000000E+000	0.0000000E+000	-111.71	0.0000000E+000	0.0000000E+000	0.0000000E+000	21.7096	0.0000000E+000	0.0000000E+000	0.0000000E+000	-21.7096	2.51166	68.2904	-0.00037034
92961.3	0.0837507	-0.00490709	0.0838944	3.35322	13.3125	-0.000124981	-1.18418	-348.894	-1.19365	1	37	0.0052357	0.0624083	0	-0.0044516	0.332153	0.206946	6.16425	9.01962e-06	5.58848e-06	7.87974e-06	5.96979e-06	4.53511e-06	6.51053e-06	0.097558	0.0122688	0.338439	1.04668e-05	5.9131e-05	4.49812e-06	5.82761e-06	3.45696e-06	4.02187e-06	11.8993	-0.697202	11.9198	-3.35322	-1193.65	20372.3	20407.3	-93.3532	0.0000000E+000	0.0000000E+000	0.0000000E+000	93.3532	0.0000000E+000	0.0000000E+000	0.0000000E+000	-93.3532	0.0000000E+000	0.0000000E+000	0.0000000E+000	3.35322	0.0000000E+000	0.0000000E+000	0.0000000E+000	-3.35322	17.0673	86.6468	-0.000347134
29552	0.0893391	0.00647795	0.0895736	-4.14724	19.0545	-0.000131412	-1.06202	831.372	4.3482	1	37	0.00519462	0.0579927	0	-0.00622461	0.309599	0.175553	6.23006	6.98589e-06	5.55198e-06	5.48096e-06	6.97624e-06	4.81598e-06	7.28502e-06	0.133646	0.0184028	0.370398	1.22149e-05	7.52575e-05	3.26851e-06	9.12457e-06	4.40451e-06	7.55461e-06	11.1348	0.807378	11.164	4.14724	4348.2	59967.2	60124.6	-85.8528	0.0000000E+000	0.0000000E+000	0.0000000E+000	85.8528	0.0000000E+000	0.0000000E+000	0.0000000E+000	-85.8528	0.0000000E+000	0.0000000E+000	0.0000000E+000	-4.14724	0.0000000E+000	0.0000000E+000	0.0000000E+000	4.14724	13.7913	85.8528	-0.000252402
9395.12	0.0991074	0.0127708	0.0999269	-7.34256	24.796	-0.000239938	-1.9645	1326.48	21.6656	1	37	0.00525975	0.052636	0	-0.00832884	0.302652	0.137128	6.20689	5.28918e-06	6.99844e-06	4.4477e-06	7.4308e-06	8.7273e-06	2.80082e-06	0.127011	0.0484685	0.413124	1.02943e-05	6.4499e-05	3.73473e-06	1.10453e-05	4.32045e-06	3.1368e-06	9.92526	1.27895	10.0073	7.34256	21665.6	168136	169526	-82.6574	0.0000000E+000	0.0000000E+000	0.0000000E+000	82.6574	0.0000000E+000	0.0000000E+000	0.0000000E+000	-82.6574	0.0000000E+000	0.0000000E+000	0.0000000E+000	-7.34256	0.0000000E+000	0.0000000E+000	0.0000000E+000	7.34256	7.76048	82.6574	-0.00056595
2985.95	0.111954	0.0137833	0.1128	-7.01868	31.2467	-0.000234812	-1.92301	3867.07	57.7398	1	37	0.00518136	0.0459342	0	-0.0117629	0.291229	0.131311	6.18501	2.79831e-06	5.71e-06	5.56734e-06	5.28934e-06	7.78341e-06	5.82493e-06	0.0679532	0.0389164	0.47724	5.85766e-06	2.83561e-05	6.37611e-06	6.68339e-06	6.293e-06	1.9596e-06	8.79883	1.08327	8.86526	7.01868	57739.8	468988	472529	-82.9813	0.0000000E+000	0.0000000E+000	0.0000000E+000	82.9813	0.0000000E+000	0.0000000E+000	0.0000000E+000	-82.9813	0.0000000E+000	0.0000000E+000	0.0000000E+000	-7.01868	0.0000000E+000	0.0000000E+000	0.0000000E+000	7.01868	8.12245	82.9813	-0.000717445
949.092	0.122306	0.00948908	0.122674	-4.43638	37.8899	-0.000246518	-2.02606	17672.1	105.738	1	37	0.00512943	0.0418136	0	-0.0153807	0.289546	0.228381	6.38253	5.9749e-06	4.71943e-06	6.72739e-06	6.16703e-06	5.05782e-06	2.38256e-06	0.0408954	0.116281	0.52538	8.86168e-06	4.18908e-06	5.20279e-06	1.04143e-05	3.59386e-06	6.01557e-06	8.12727	0.63055	8.1517	4.43638	105738	1.36288e+06	1.36697e+06	-85.5636	0.0000000E+000	0.0000000E+000	0.0000000E+000	85.5636	0.0000000E+000	0.0000000E+000	0.0000000E+000	-85.5636	0.0000000E+000	0.0000000E+000	0.0000000E+000	-4.43638	0.0000000E+000	0.0000000E+000	0.0000000E+000	4.43638	12.8892	85.5636	-0.000774561
301.641	0.126794	0.00474425	0.126883	-2.14284	44.0857	-0.000208062	-1.99446	111215	155.487	1	37	0.00522955	0.0412157	0	-0.0187894	0.314408	0.175851	6.10459	6.04384e-06	8.10409e-06	6.03704e-06	4.61331e-06	6.6387e-06	5.98467e-06	0.0702557	0.053219	0.53567	6.29872e-06	2.27962e-05	1.91266e-06	1.33604e-05	5.0276e-06	6.24604e-06	7.87579	0.294689	7.88131	2.14284	155487	4.1555e+06	4.15841e+06	-87.8572	0.0000000E+000	0.0000000E+000	0.0000000E+000	87.8572	0.0000000E+000	0.0000000E+000	0.0000000E+000	-87.8572	0.0000000E+000	0.0000000E+000	0.0000000E+000	-2.14284	0.0000000E+000	0.0000000E+000	0.0000000E+000	2.14284	26.7258	87.8572	-0.000643798
[...]
0.978641	0.13236	0.00302132	0.132394	-1.30764	92.0358	-0.000208118	-1.80274	5.3827e+07	28032.1	1	37	0.00511418	0.0386284	0	-0.0451314	0.134914	0.0647067	1.42285	1.3e-06	5.20725e-06	1.36931e-06	2.47471e-06	1.88463e-06	2.14609e-06	0.128854	0.0717807	0.287125	1.01731e-05	3.28424e-05	9.12429e-06	3.01731e-05	7.68699e-06	1.02455e-05	7.55123	0.172369	7.5532	1.30764	2.80321e+07	1.22805e+09	1.22837e+09	-88.6924	0.0000000E+000	0.0000000E+000	0.0000000E+000	88.6924	0.0000000E+000	0.0000000E+000	0.0000000E+000	-88.6924	0.0000000E+000	0.0000000E+000	0.0000000E+000	-1.30764	0.0000000E+000	0.0000000E+000	0.0000000E+000	1.30764	43.8086	88.6924	-0.00596531
0.311199	0.136183	0.0022838	0.136203	-0.960761	158.984	-0.000180558	-1.76058	2.23936e+08	62960.6	1	37	0.00511219	0.0375337	0	-0.0709667	0.100091	0.0596333	0.792806	1.6123e-06	3.88806e-06	1.08667e-06	1.97473e-06	1.32542e-06	7.51124e-07	0.118774	0.0569243	0.282772	1.14259e-05	2.57657e-05	6.93677e-06	3.16188e-05	5.76285e-06	5.82401e-06	7.34097	0.123108	7.342	0.960761	6.29607e+07	3.75436e+09	3.75489e+09	-89.0392	0.0000000E+000	0.0000000E+000	0.0000000E+000	89.0392	0.0000000E+000	0.0000000E+000	0.0000000E+000	-89.0392	0.0000000E+000	0.0000000E+000	0.0000000E+000	-0.960761	0.0000000E+000	0.0000000E+000	0.0000000E+000	0.960761	59.6302	89.0392	-0.004874
0.0988834	0.137353	0.000881633	0.137355	-0.367763	366.105	-0.000190945	-1.73309	1.82561e+09	75213	1	37	0.00511151	0.0372137	0	-0.175569	0.109942	0.0829526	0.459294	1.61194e-06	4.2092e-06	9.15652e-07	2.91801e-06	8.87886e-07	7.94565e-07	0.114448	0.107358	0.240189	4.68012e-06	2.59499e-05	5.8117e-06	3.13384e-05	7.58519e-06	5.7789e-06	7.28023	0.04673	7.28038	0.367763	7.52124e+07	1.17177e+10	1.17179e+10	-89.6322	0.0000000E+000	0.0000000E+000	0.0000000E+000	89.6322	0.0000000E+000	0.0000000E+000	0.0000000E+000	-89.6322	0.0000000E+000	0.0000000E+000	0.0000000E+000	-0.367763	0.0000000E+000	0.0000000E+000	0.0000000E+000	0.367763	155.793	89.6322	-0.0180456
0.0314526	0.13723	0.000296896	0.13723	-0.123959	1014.27	-0.000184573	-1.63176	1.70436e+10	79775.3	1	37	0.00511074	0.0372421	0	-0.525893	0.104779	0.161297	0.292047	1.99866e-06	3.60473e-06	9.50497e-07	2.78443e-06	6.29218e-07	5.83951e-07	0.11975	0.160611	0.215159	1.21939e-05	1.76532e-05	6.35243e-06	3.58988e-05	9.52957e-06	7.23436e-06	7.287	0.0157654	7.28702	0.123959	7.97777e+07	3.68734e+10	3.68735e+10	-89.876	0.0000000E+000	0.0000000E+000	0.0000000E+000	89.876	0.0000000E+000	0.0000000E+000	0.0000000E+000	-89.876	0.0000000E+000	0.0000000E+000	0.0000000E+000	-0.123959	0.0000000E+000	0.0000000E+000	0.0000000E+000	0.123959	462.216	89.876	-0.120487
0.0250094	0.13698	0.000297586	0.13698	-0.124474	1258.73	-0.000206019	-1.72346	2.13847e+10	100928	1	37	0.00511338	0.0373293	0	-0.653047	0.116502	0.178392	0.26652	2.43028e-06	4.34706e-06	1.56546e-06	2.1426e-06	8.96726e-07	7.15723e-07	0.129643	0.154528	0.188081	2.17021e-05	2.85029e-05	1.59898e-05	2.5999e-05	5.74234e-06	6.0815e-06	7.3003	0.0158597	7.30032	0.124474	1.00928e+08	4.64576e+10	4.64577e+10	-89.8755	0.0000000E+000	0.0000000E+000	0.0000000E+000	89.8755	0.0000000E+000	0.0000000E+000	0.0000000E+000	-89.8755	0.0000000E+000	0.0000000E+000	0.0000000E+000	-0.124474	0.0000000E+000	0.0000000E+000	0.0000000E+000	0.124474	460.304	89.8755	-0.127154