Folder: Thesis/Python/Data/GoldElectrode/240319/Carbon (part 2)

File: 240319-CVEIS_Activation-0p5H2SO4-Ag_AgCl_BLF8-GC_RDE-80cycles_04_PEIS_C15.mpt
EC-Lab ASCII FILE
Nb header lines : 66

Potentio Electrochemical Impedance Spectroscopy

Run on channel : 15 (SN 19485)
User :
Electrode connection : standard
Potential control : Ewe
Ewe ctrl range : min = -2.50 V, max = 2.50 V
Ewe,I filtering : 50 kHz
Safety Limits :
	Do not start on E overload
Channel : Floating
Acquisition started on : 03/19/2024 14:45:18.810
Loaded Setting File :  C:\Data\mathias\GoldElectrode\240313-CVEIS_Activation-0p5H2SO4-Ag_AgCl_BLF8-Au_RDE-80cycles.mps
Saved on :
	File : 240319-CVEIS_Activation-0p5H2SO4-Ag_AgCl_BLF8-GC_RDE-80cycles_04_PEIS_C15.mpr
	Directory : C:\Data\mathias\GoldElectrode\
	Host : 192.168.0.1
Device : VMP-300 (SN 0826)
Address : USB
EC-Lab for windows v11.52 (software)
Internet server v11.52 (firmware)
Command interpretor v11.52 (firmware)
Electrode material :
Initial state :
Electrolyte :
Comments :
Cable : special
Electrode surface area : 0.001 cm²
Characteristic mass : 0.001 g
Equivalent Weight : 0.000 g/eq.
Density : 0.000 g/cm3
Volume (V) : 0.001 cm³
Record EIS quality indicators
Cycle Definition : Charge/Discharge alternance
Mode                Single sine
E (V)               0.0000
vs.                 Eoc
tE (h:m:s)          0:00:0.0000
record              0
dI                  0.000
unit dI             mA
dt (s)              0.000
fi                  100.000
unit fi             kHz
ff                  100.000
unit ff             Hz
Nd                  10
Points              per decade
spacing             Logarithmic
Va (mV)             5.0
pw                  0.10
Na                  2
corr                0
E range min (V)     -2.500
E range max (V)     2.500
I Range             Auto
Bandwidth           8
nc cycles           0
goto Ns'            0
nr cycles           0
inc. cycle          0

freq/Hz	Re(Z)/Ohm	-Im(Z)/Ohm	|Z|/Ohm	Phase(Z)/deg	time/s	<Ewe>/V	<I>/mA	Cs/µF	Cp/µF	cycle number	I Range	|Ewe|/V	|I|/A	Ns	(Q-Qo)/mA.h	THD Ewe/%	NSD Ewe/%	NSR Ewe/%	|Ewe h2|/V	|Ewe h3|/V	|Ewe h4|/V	|Ewe h5|/V	|Ewe h6|/V	|Ewe h7|/V	THD I/%	NSD I/%	NSR I/%	|I h2|/A	|I h3|/A	|I h4|/A	|I h5|/A	|I h6|/A	|I h7|/A	Re(Y)/Ohm-1	Im(Y)/Ohm-1	|Y|/Ohm-1	Phase(Y)/deg	Re(C)/nF	Im(C)/nF	|C|/nF	Phase(C)/deg	Re(M)	Im(M)	|M|	Phase(M)/deg	Re(Permittivity)	Im(Permittivity)	|Permittivity|	Phase(Permittivity)/deg	Re(Resistivity)/Ohm.cm	Im(Resistivity)/Ohm.cm	|Resistivity|/Ohm.cm	Phase(Resistivity)/deg	Re(Conductivity)/mS/cm	Im(Conductivity)/mS/cm	|Conductivity|/mS/cm	Phase(Conductivity)/deg	Tan(Delta)	Loss Angle(Delta)/deg	dq/mA.h
100004	8.10814	1.00863	8.17064	-7.09102	389.661	0.334469	-0.0198281	1.57787	0.024045	1	38	0.00451417	0.000552486	0	-5.19826e-06	3.89421	2.5435	87.798	9.59302e-05	4.64039e-05	6.88685e-05	4.49106e-05	7.24974e-05	6.788e-05	0.323973	0.210321	6.74199	1.1426e-06	8.27358e-07	6.4053e-07	5.03574e-07	3.19693e-07	5.11181e-07	0.121453	0.0151085	0.122389	7.09102	24.045	193.292	194.782	-82.909	0.0000000E+000	0.0000000E+000	0.0000000E+000	82.909	0.0000000E+000	0.0000000E+000	0.0000000E+000	-82.909	0.0000000E+000	0.0000000E+000	0.0000000E+000	-7.09102	0.0000000E+000	0.0000000E+000	0.0000000E+000	7.09102	8.03875	82.909	-5.19826e-06
63093.8	8.1728	1.16895	8.25597	-8.13977	391.289	0.334457	-0.0107213	2.15793	0.0432606	1	38	0.00516994	0.000626206	0	-9.31434e-06	3.98743	1.99035	78.277	9.35324e-05	4.31676e-05	8.32031e-05	0.000117077	7.27728e-05	6.30668e-05	0.387753	0.143717	5.95637	1.26598e-06	7.98397e-07	9.80795e-07	9.69029e-07	1.059e-06	3.24949e-07	0.119904	0.0171498	0.121124	8.13977	43.2606	302.46	305.538	-81.8602	0.0000000E+000	0.0000000E+000	0.0000000E+000	81.8602	0.0000000E+000	0.0000000E+000	0.0000000E+000	-81.8602	0.0000000E+000	0.0000000E+000	0.0000000E+000	-8.13977	0.0000000E+000	0.0000000E+000	0.0000000E+000	8.13977	6.99157	81.8602	-2.69036e-06
39814.1	8.24034	1.31144	8.34404	-9.04271	392.918	0.334522	-0.0101441	3.04814	0.0752972	1	38	0.00515919	0.000618308	0	-1.35332e-05	5.0746	1.4933	76.6264	0.000142991	4.70714e-05	6.03834e-05	7.056e-05	3.20764e-05	0.000185136	0.403366	0.134879	6.11035	7.682e-07	8.0141e-07	1.0439e-06	9.62249e-07	5.45553e-07	1.56096e-06	0.118356	0.0188363	0.119846	9.04271	75.2972	473.125	479.079	-80.9573	0.0000000E+000	0.0000000E+000	0.0000000E+000	80.9573	0.0000000E+000	0.0000000E+000	0.0000000E+000	-80.9573	0.0000000E+000	0.0000000E+000	0.0000000E+000	-9.04271	0.0000000E+000	0.0000000E+000	0.0000000E+000	9.04271	6.28343	80.9573	-3.18442e-06
25116.9	8.36601	1.72299	8.5416	-11.6374	394.547	0.3345	-0.00933231	3.67766	0.149644	1	38	0.00518102	0.000606564	0	-1.81337e-05	3.68335	2.41469	76.4003	0.000133038	7.05759e-05	2.71675e-05	5.36352e-05	4.9292e-05	6.73622e-05	0.359792	0.0937346	6.17629	1.02724e-06	6.72325e-07	3.57168e-07	1.43645e-06	4.20348e-07	3.89472e-07	0.114668	0.0236159	0.117074	11.6374	149.644	726.598	741.848	-78.3626	0.0000000E+000	0.0000000E+000	0.0000000E+000	78.3626	0.0000000E+000	0.0000000E+000	0.0000000E+000	-78.3626	0.0000000E+000	0.0000000E+000	0.0000000E+000	-11.6374	0.0000000E+000	0.0000000E+000	0.0000000E+000	11.6374	4.85553	78.3626	-2.49254e-06
15847.7	8.69802	2.42179	9.02888	-15.5588	396.175	0.334549	-0.00967118	4.14684	0.298348	1	38	0.0052365	0.000579972	0	-2.21766e-05	2.98001	1.69974	76.642	6.1327e-05	5.69148e-05	4.4602e-05	4.39562e-05	3.70951e-05	0.000103437	0.313396	0.15422	6.59775	9.4042e-07	5.23884e-07	7.95875e-07	7.84836e-07	6.83921e-07	3.92079e-07	0.106697	0.0297077	0.110756	15.5588	298.348	1071.54	1112.3	-74.4412	0.0000000E+000	0.0000000E+000	0.0000000E+000	74.4412	0.0000000E+000	0.0000000E+000	0.0000000E+000	-74.4412	0.0000000E+000	0.0000000E+000	0.0000000E+000	-15.5588	0.0000000E+000	0.0000000E+000	0.0000000E+000	15.5588	3.59156	74.4412	-2.57815e-06
10002.2	8.88889	3.12556	9.4224	-19.373	397.803	0.334521	-0.00848886	5.09091	0.560182	1	38	0.0049698	0.000527445	0	-2.52748e-05	2.95205	1.59214	79.6769	3.77481e-05	2.5398e-05	6.77663e-05	7.7339e-05	1.44762e-05	9.09241e-05	0.392382	0.229236	7.19082	1.09057e-06	6.48589e-07	3.82518e-07	3.34602e-07	4.45973e-07	1.33637e-06	0.100121	0.0352051	0.10613	19.373	560.182	1593.12	1688.74	-70.627	0.0000000E+000	0.0000000E+000	0.0000000E+000	70.627	0.0000000E+000	0.0000000E+000	0.0000000E+000	-70.627	0.0000000E+000	0.0000000E+000	0.0000000E+000	-19.373	0.0000000E+000	0.0000000E+000	0.0000000E+000	19.373	2.84393	70.627	-1.65084e-06
6307.74	9.21593	4.79988	10.391	-27.5116	399.551	0.3343	-0.00952968	5.25674	1.12167	1	38	0.00499201	0.000480418	0	-2.92043e-05	4.30158	6.31021	78.6248	8.59973e-05	9.89208e-05	0.000112309	8.84113e-05	5.5805e-05	3.58784e-05	0.310893	0.55143	7.63806	9.35319e-07	6.17249e-07	4.57326e-07	2.9382e-07	5.61559e-07	3.45625e-07	0.0853547	0.0444548	0.0962375	27.5116	1121.67	2153.64	2428.24	-62.4884	0.0000000E+000	0.0000000E+000	0.0000000E+000	62.4884	0.0000000E+000	0.0000000E+000	0.0000000E+000	-62.4884	0.0000000E+000	0.0000000E+000	0.0000000E+000	-27.5116	0.0000000E+000	0.0000000E+000	0.0000000E+000	27.5116	1.92003	62.4884	-1.47141e-06
[...]
631.01	16.0255	32.6359	36.3582	-63.8471	407.248	0.334361	-0.000783193	7.72838	6.22694	1	39	0.00544238	0.000149688	0	-4.57129e-05	6.4581	3.0607	70.6028	4.97968e-05	0.000142381	0.000255123	5.41214e-05	0.000169925	3.64838e-05	0.896769	0.210924	11.9047	4.16185e-07	5.67808e-07	7.4477e-07	5.70048e-07	5.02919e-07	1.85449e-07	0.0121229	0.0246883	0.0275041	63.8471	6226.94	3057.67	6937.16	-26.1529	0.0000000E+000	0.0000000E+000	0.0000000E+000	26.1529	0.0000000E+000	0.0000000E+000	0.0000000E+000	-26.1529	0.0000000E+000	0.0000000E+000	0.0000000E+000	-63.8471	0.0000000E+000	0.0000000E+000	0.0000000E+000	63.8471	0.49104	26.1529	-3.78156e-07
398.089	19.689	48.272	52.1329	-67.8107	408.736	0.334364	-0.000476413	8.28218	7.10086	1	39	0.00522488	0.000100222	0	-4.58825e-05	3.16884	2.0951	72.7186	7.25498e-05	4.39171e-05	7.27472e-05	7.83305e-05	4.80317e-05	5.26518e-05	0.840038	0.371923	18.0435	3.8143e-07	2.65333e-07	3.7622e-07	4.11077e-07	2.71565e-07	2.62497e-07	0.00724434	0.0177611	0.0191817	67.8107	7100.86	2896.27	7668.81	-22.1893	0.0000000E+000	0.0000000E+000	0.0000000E+000	22.1893	0.0000000E+000	0.0000000E+000	0.0000000E+000	-22.1893	0.0000000E+000	0.0000000E+000	0.0000000E+000	-67.8107	0.0000000E+000	0.0000000E+000	0.0000000E+000	67.8107	0.407875	22.1893	-5.97734e-08
251.206	25.7491	70.9573	75.4848	-70.0551	410.221	0.334423	-0.000925588	8.9288	7.88984	1	39	0.0050984	6.75421e-05	0	-4.6028e-05	3.41961	1.98873	75.365	6.11815e-05	8.86721e-05	4.4211e-05	7.96836e-05	6.55147e-05	6.45455e-05	1.30801	1.00022	25.9654	4.10395e-07	4.21524e-07	2.7107e-07	3.42204e-07	3.52984e-07	2.179e-07	0.004519	0.0124531	0.0132477	70.0551	7889.84	2863.08	8393.26	-19.9449	0.0000000E+000	0.0000000E+000	0.0000000E+000	19.9449	0.0000000E+000	0.0000000E+000	0.0000000E+000	-19.9449	0.0000000E+000	0.0000000E+000	0.0000000E+000	-70.0551	0.0000000E+000	0.0000000E+000	0.0000000E+000	70.0551	0.362881	19.9449	-1.68203e-08
158.529	32.9575	106.801	111.77	-72.8504	411.713	0.334421	-0.000772012	9.40019	8.58287	1	39	0.00511156	4.57327e-05	0	-4.63054e-05	4.15677	1.99004	76.0369	0.000134308	3.25548e-05	7.66121e-05	6.27507e-05	6.24107e-05	8.86015e-05	1.94463	0.791186	40.132	3.09292e-07	3.68322e-07	3.22651e-07	3.86564e-07	2.42483e-07	3.97904e-07	0.00263815	0.00854912	0.00894691	72.8504	8582.87	2648.57	8982.24	-17.1496	0.0000000E+000	0.0000000E+000	0.0000000E+000	17.1496	0.0000000E+000	0.0000000E+000	0.0000000E+000	-17.1496	0.0000000E+000	0.0000000E+000	0.0000000E+000	-72.8504	0.0000000E+000	0.0000000E+000	0.0000000E+000	72.8504	0.308588	17.1496	-1.91536e-07
99.9682	47.4404	157.628	164.612	-73.2501	413.186	0.334399	-0.000471383	10.1001	9.26121	1	39	0.00507056	3.0803e-05	0	-4.6565e-05	4.56848	2.49207	75.7449	4.47606e-05	9.76975e-05	9.20512e-05	5.91183e-05	0.00013665	4.92143e-05	2.41069	1.81315	56.6468	1.19795e-07	1.78094e-07	2.09903e-07	5.25617e-07	2.64538e-07	2.42651e-07	0.00175075	0.00581714	0.00607488	73.2501	9261.21	2787.29	9671.56	-16.7499	0.0000000E+000	0.0000000E+000	0.0000000E+000	16.7499	0.0000000E+000	0.0000000E+000	0.0000000E+000	-16.7499	0.0000000E+000	0.0000000E+000	0.0000000E+000	-73.2501	0.0000000E+000	0.0000000E+000	0.0000000E+000	73.2501	0.300964	16.7499	-1.60884e-07

File: 240319-CVEIS_Activation-0p5H2SO4-Ag_AgCl_BLF8-GC_RDE-80cycles_06_PEIS_C15.mpt
EC-Lab ASCII FILE
Nb header lines : 66

Potentio Electrochemical Impedance Spectroscopy

Run on channel : 15 (SN 19485)
User :
Electrode connection : standard
Potential control : Ewe
Ewe ctrl range : min = -2.50 V, max = 2.50 V
Ewe,I filtering : 50 kHz
Safety Limits :
	Do not start on E overload
Channel : Floating
Acquisition started on : 03/19/2024 14:45:18.810
Loaded Setting File :  C:\Data\mathias\GoldElectrode\240313-CVEIS_Activation-0p5H2SO4-Ag_AgCl_BLF8-Au_RDE-80cycles.mps
Saved on :
	File : 240319-CVEIS_Activation-0p5H2SO4-Ag_AgCl_BLF8-GC_RDE-80cycles_06_PEIS_C15.mpr
	Directory : C:\Data\mathias\GoldElectrode\
	Host : 192.168.0.1
Device : VMP-300 (SN 0826)
Address : USB
EC-Lab for windows v11.52 (software)
Internet server v11.52 (firmware)
Command interpretor v11.52 (firmware)
Electrode material :
Initial state :
Electrolyte :
Comments :
Cable : special
Electrode surface area : 0.001 cm²
Characteristic mass : 0.001 g
Equivalent Weight : 0.000 g/eq.
Density : 0.000 g/cm3
Volume (V) : 0.001 cm³
Record EIS quality indicators
Cycle Definition : Charge/Discharge alternance
Mode                Single sine
E (V)               0.0000
vs.                 Eoc
tE (h:m:s)          0:00:0.0000
record              0
dI                  0.000
unit dI             mA
dt (s)              0.000
fi                  100.000
unit fi             kHz
ff                  100.000
unit ff             Hz
Nd                  10
Points              per decade
spacing             Logarithmic
Va (mV)             5.0
pw                  0.10
Na                  2
corr                0
E range min (V)     -2.500
E range max (V)     2.500
I Range             Auto
Bandwidth           8
nc cycles           0
goto Ns'            0
nr cycles           0
inc. cycle          0

freq/Hz	Re(Z)/Ohm	-Im(Z)/Ohm	|Z|/Ohm	Phase(Z)/deg	time/s	<Ewe>/V	<I>/mA	Cs/µF	Cp/µF	cycle number	I Range	|Ewe|/V	|I|/A	Ns	(Q-Qo)/mA.h	THD Ewe/%	NSD Ewe/%	NSR Ewe/%	|Ewe h2|/V	|Ewe h3|/V	|Ewe h4|/V	|Ewe h5|/V	|Ewe h6|/V	|Ewe h7|/V	THD I/%	NSD I/%	NSR I/%	|I h2|/A	|I h3|/A	|I h4|/A	|I h5|/A	|I h6|/A	|I h7|/A	Re(Y)/Ohm-1	Im(Y)/Ohm-1	|Y|/Ohm-1	Phase(Y)/deg	Re(C)/nF	Im(C)/nF	|C|/nF	Phase(C)/deg	Re(M)	Im(M)	|M|	Phase(M)/deg	Re(Permittivity)	Im(Permittivity)	|Permittivity|	Phase(Permittivity)/deg	Re(Resistivity)/Ohm.cm	Im(Resistivity)/Ohm.cm	|Resistivity|/Ohm.cm	Phase(Resistivity)/deg	Re(Conductivity)/mS/cm	Im(Conductivity)/mS/cm	|Conductivity|/mS/cm	Phase(Conductivity)/deg	Tan(Delta)	Loss Angle(Delta)/deg	dq/mA.h
100004	8.03739	0.898681	8.08748	-6.37988	776.66	0.334453	-0.0202135	1.77092	0.0218667	1	38	0.0047885	0.000592088	0	-5.80726e-06	3.82505	1.87266	84.2727	5.67837e-06	8.8663e-05	4.61833e-05	0.000118639	8.13265e-05	3.56091e-05	0.270597	0.173181	6.57389	5.65866e-07	7.18095e-07	8.31946e-07	4.81022e-07	6.9802e-07	3.17297e-07	0.122882	0.0137398	0.123648	6.37988	21.8667	195.566	196.784	-83.6201	0.0000000E+000	0.0000000E+000	0.0000000E+000	83.6201	0.0000000E+000	0.0000000E+000	0.0000000E+000	-83.6201	0.0000000E+000	0.0000000E+000	0.0000000E+000	-6.37988	0.0000000E+000	0.0000000E+000	0.0000000E+000	6.37988	8.94355	83.6201	-5.80726e-06
63093.8	7.98551	0.899132	8.03597	-6.42418	778.287	0.334494	-0.0102018	2.8055	0.035122	1	38	0.00507635	0.000631704	0	-1.09521e-05	4.76093	1.64687	78.8446	9.4816e-05	8.13359e-05	9.84026e-05	9.46766e-05	0.000108886	4.58818e-05	0.296931	0.209502	5.98956	7.32454e-07	7.62415e-07	8.00477e-07	4.32828e-07	7.11431e-07	5.59818e-07	0.123659	0.0139234	0.12444	6.42418	35.122	311.931	313.903	-83.5758	0.0000000E+000	0.0000000E+000	0.0000000E+000	83.5758	0.0000000E+000	0.0000000E+000	0.0000000E+000	-83.5758	0.0000000E+000	0.0000000E+000	0.0000000E+000	-6.42418	0.0000000E+000	0.0000000E+000	0.0000000E+000	6.42418	8.88136	83.5758	-2.857e-06
39814.1	8.03672	1.1003	8.11169	-7.79582	779.915	0.334394	-0.0103098	3.63307	0.0668452	1	38	0.00507618	0.000625785	0	-1.68675e-05	4.30898	2.54478	77.5572	0.000156523	0.000107516	2.88182e-05	2.48244e-05	6.0397e-05	6.95168e-05	0.361739	0.224662	6.06552	1.08052e-06	1.33649e-06	7.6897e-07	8.37114e-07	7.12572e-07	3.37617e-07	0.12214	0.0167219	0.123279	7.79582	66.8452	488.247	492.802	-82.2042	0.0000000E+000	0.0000000E+000	0.0000000E+000	82.2042	0.0000000E+000	0.0000000E+000	0.0000000E+000	-82.2042	0.0000000E+000	0.0000000E+000	0.0000000E+000	-7.79582	0.0000000E+000	0.0000000E+000	0.0000000E+000	7.79582	7.30415	82.2042	-3.60705e-06
25116.9	8.09145	1.35297	8.20378	-9.49258	781.544	0.3344	-0.0103154	4.68346	0.127383	1	38	0.00490877	0.000598355	0	-2.17576e-05	3.36416	3.73331	81.6404	5.69659e-05	9.34316e-05	5.06451e-05	9.0393e-05	2.11406e-05	5.56609e-05	0.318073	0.16749	6.30194	7.70823e-07	4.57873e-07	6.3455e-07	8.08336e-07	7.86126e-07	6.21098e-07	0.120226	0.0201029	0.121895	9.49258	127.383	761.819	772.396	-80.5074	0.0000000E+000	0.0000000E+000	0.0000000E+000	80.5074	0.0000000E+000	0.0000000E+000	0.0000000E+000	-80.5074	0.0000000E+000	0.0000000E+000	0.0000000E+000	-9.49258	0.0000000E+000	0.0000000E+000	0.0000000E+000	9.49258	5.98052	80.5074	-1.9512e-06
15847.7	8.55887	1.80414	8.74695	-11.9032	783.172	0.334433	-0.00960974	5.56652	0.236816	1	38	0.00518733	0.000593044	0	-2.5796e-05	3.22194	2.04577	76.324	5.83696e-05	4.67996e-05	2.20553e-05	7.6298e-05	8.80977e-05	8.0119e-05	0.299568	0.177915	6.46204	3.42522e-07	6.98898e-07	3.63458e-07	7.25207e-07	6.80274e-07	9.07147e-07	0.111867	0.0235807	0.114326	11.9032	236.816	1123.46	1148.15	-78.0968	0.0000000E+000	0.0000000E+000	0.0000000E+000	78.0968	0.0000000E+000	0.0000000E+000	0.0000000E+000	-78.0968	0.0000000E+000	0.0000000E+000	0.0000000E+000	-11.9032	0.0000000E+000	0.0000000E+000	0.0000000E+000	11.9032	4.74401	78.0968	-2.56276e-06
10002.2	8.89192	2.53818	9.24709	-15.9313	784.8	0.334411	-0.0102056	6.26903	0.47232	1	38	0.00519126	0.000561394	0	-3.0591e-05	3.62486	2.13106	75.4519	4.64061e-05	0.000110152	8.36377e-05	6.77282e-05	1.89453e-05	7.82742e-05	0.313198	0.202968	6.77295	7.21716e-07	7.38174e-07	7.99703e-07	5.38951e-07	7.65888e-07	4.38249e-07	0.103989	0.0296834	0.108142	15.9313	472.32	1654.66	1720.75	-74.0687	0.0000000E+000	0.0000000E+000	0.0000000E+000	74.0687	0.0000000E+000	0.0000000E+000	0.0000000E+000	-74.0687	0.0000000E+000	0.0000000E+000	0.0000000E+000	-15.9313	0.0000000E+000	0.0000000E+000	0.0000000E+000	15.9313	3.50326	74.0687	-2.19541e-06
6307.74	9.0637	3.45582	9.70017	-20.8709	786.551	0.334253	-0.0099542	7.30123	0.926699	1	38	0.00506928	0.000522597	0	-3.4777e-05	3.22718	2.58409	80.2053	3.0753e-05	6.78695e-05	6.1737e-05	9.25469e-05	7.55652e-05	4.77533e-05	0.381228	0.254804	7.32027	6.67316e-07	7.72607e-07	1.17352e-06	6.52506e-07	6.93756e-07	6.25865e-07	0.0963267	0.0367276	0.103091	20.8709	926.699	2430.49	2601.16	-69.1291	0.0000000E+000	0.0000000E+000	0.0000000E+000	69.1291	0.0000000E+000	0.0000000E+000	0.0000000E+000	-69.1291	0.0000000E+000	0.0000000E+000	0.0000000E+000	-20.8709	0.0000000E+000	0.0000000E+000	0.0000000E+000	20.8709	2.62274	69.1291	-2.54973e-06
[...]
631.01	14.0263	24.3192	28.0742	-60.0255	794.217	0.334383	-0.00640536	10.3713	7.7825	1	38	0.0050024	0.000178185	0	-5.16838e-05	5.11713	2.04613	80.0656	6.03724e-05	0.000200823	8.33158e-05	3.30533e-05	7.31793e-05	5.14917e-05	1.32829	0.493348	21.3743	1.06556e-06	6.98036e-07	1.06486e-06	8.01741e-07	9.45601e-07	1.0063e-06	0.0177962	0.0308557	0.0356199	60.0255	7782.5	4488.6	8984.14	-29.9745	0.0000000E+000	0.0000000E+000	0.0000000E+000	29.9745	0.0000000E+000	0.0000000E+000	0.0000000E+000	-29.9745	0.0000000E+000	0.0000000E+000	0.0000000E+000	-60.0255	0.0000000E+000	0.0000000E+000	0.0000000E+000	60.0255	0.576756	29.9745	-1.01009e-06
398.089	16.4497	36.2896	39.8438	-65.6158	795.957	0.334364	-0.000541832	11.0169	9.13905	1	39	0.00510404	0.000128101	0	-5.22473e-05	2.97529	3.33877	77.5079	5.92063e-05	6.80015e-05	4.15583e-05	5.9907e-05	6.165e-05	5.55673e-05	0.750053	0.705216	13.7878	4.65303e-07	2.37108e-07	2.54195e-07	2.75662e-07	4.90395e-07	4.15022e-07	0.0103618	0.0228592	0.025098	65.6158	9139.05	4142.63	10034.1	-24.3842	0.0000000E+000	0.0000000E+000	0.0000000E+000	24.3842	0.0000000E+000	0.0000000E+000	0.0000000E+000	-24.3842	0.0000000E+000	0.0000000E+000	0.0000000E+000	-65.6158	0.0000000E+000	0.0000000E+000	0.0000000E+000	65.6158	0.453289	24.3842	-2.0011e-08
251.206	20.5716	53.7348	57.538	-69.0514	797.442	0.334323	-0.00067584	11.7906	10.2834	1	39	0.00496545	8.62986e-05	0	-5.24213e-05	3.78367	1.36397	76.8484	3.74769e-05	6.50688e-05	6.66692e-05	8.35991e-05	0.000116211	6.04613e-05	1.03488	0.424528	20.4385	3.73884e-07	4.87816e-07	3.21641e-07	1.7343e-07	2.36879e-07	4.20094e-07	0.00621382	0.016231	0.0173798	69.0514	10283.4	3936.85	11011.2	-20.9486	0.0000000E+000	0.0000000E+000	0.0000000E+000	20.9486	0.0000000E+000	0.0000000E+000	0.0000000E+000	-20.9486	0.0000000E+000	0.0000000E+000	0.0000000E+000	-69.0514	0.0000000E+000	0.0000000E+000	0.0000000E+000	69.0514	0.382836	20.9486	-1.39022e-07
158.529	25.0057	81.2132	84.9757	-72.8863	798.935	0.334349	-0.000343713	12.3619	11.2914	1	39	0.00493977	5.81316e-05	0	-5.25741e-05	3.55413	1.39644	78.6493	4.92644e-05	0.000112071	6.69444e-05	4.9725e-05	5.88682e-05	2.10975e-05	1.53593	0.826624	30.2364	4.95193e-07	1.87585e-07	4.15992e-07	2.5321e-07	3.80945e-07	1.67797e-07	0.00346298	0.011247	0.0117681	72.8863	11291.4	3476.65	11814.5	-17.1137	0.0000000E+000	0.0000000E+000	0.0000000E+000	17.1137	0.0000000E+000	0.0000000E+000	0.0000000E+000	-17.1137	0.0000000E+000	0.0000000E+000	0.0000000E+000	-72.8863	0.0000000E+000	0.0000000E+000	0.0000000E+000	72.8863	0.307902	17.1137	-9.69299e-08
99.9682	33.15	121.743	126.175	-74.7679	800.407	0.334301	-0.000638006	13.0772	12.1745	1	39	0.00491387	3.89448e-05	0	-5.28236e-05	2.84525	2.78521	77.2372	4.44264e-05	6.04959e-05	3.32611e-05	4.03556e-05	6.36919e-05	6.84252e-05	1.98556	1.46517	44.4155	2.90884e-07	3.0141e-07	4.38409e-07	1.86802e-07	3.00105e-07	2.6126e-07	0.00208226	0.00764705	0.00792548	74.7679	12174.5	3315.07	12617.8	-15.2321	0.0000000E+000	0.0000000E+000	0.0000000E+000	15.2321	0.0000000E+000	0.0000000E+000	0.0000000E+000	-15.2321	0.0000000E+000	0.0000000E+000	0.0000000E+000	-74.7679	0.0000000E+000	0.0000000E+000	0.0000000E+000	74.7679	0.272296	15.2321	-1.1276e-07