Folder: Thesis/Python/Data/GoldElectrode/240319/Carbon (part 3)

File: 240319-CVEIS_Activation-0p5H2SO4-Ag_AgCl_BLF8-GC_RDE-80cycles_08_PEIS_C15.mpt
EC-Lab ASCII FILE
Nb header lines : 66

Potentio Electrochemical Impedance Spectroscopy

Run on channel : 15 (SN 19485)
User :
Electrode connection : standard
Potential control : Ewe
Ewe ctrl range : min = -2.50 V, max = 2.50 V
Ewe,I filtering : 50 kHz
Safety Limits :
	Do not start on E overload
Channel : Floating
Acquisition started on : 03/19/2024 14:45:18.810
Loaded Setting File :  C:\Data\mathias\GoldElectrode\240313-CVEIS_Activation-0p5H2SO4-Ag_AgCl_BLF8-Au_RDE-80cycles.mps
Saved on :
	File : 240319-CVEIS_Activation-0p5H2SO4-Ag_AgCl_BLF8-GC_RDE-80cycles_08_PEIS_C15.mpr
	Directory : C:\Data\mathias\GoldElectrode\
	Host : 192.168.0.1
Device : VMP-300 (SN 0826)
Address : USB
EC-Lab for windows v11.52 (software)
Internet server v11.52 (firmware)
Command interpretor v11.52 (firmware)
Electrode material :
Initial state :
Electrolyte :
Comments :
Cable : special
Electrode surface area : 0.001 cm²
Characteristic mass : 0.001 g
Equivalent Weight : 0.000 g/eq.
Density : 0.000 g/cm3
Volume (V) : 0.001 cm³
Record EIS quality indicators
Cycle Definition : Charge/Discharge alternance
Mode                Single sine
E (V)               0.0000
vs.                 Eoc
tE (h:m:s)          0:00:0.0000
record              0
dI                  0.000
unit dI             mA
dt (s)              0.000
fi                  100.000
unit fi             kHz
ff                  100.000
unit ff             Hz
Nd                  10
Points              per decade
spacing             Logarithmic
Va (mV)             5.0
pw                  0.10
Na                  2
corr                0
E range min (V)     -2.500
E range max (V)     2.500
I Range             Auto
Bandwidth           8
nc cycles           0
goto Ns'            0
nr cycles           0
inc. cycle          0

freq/Hz	Re(Z)/Ohm	-Im(Z)/Ohm	|Z|/Ohm	Phase(Z)/deg	time/s	<Ewe>/V	<I>/mA	Cs/µF	Cp/µF	cycle number	I Range	|Ewe|/V	|I|/A	Ns	(Q-Qo)/mA.h	THD Ewe/%	NSD Ewe/%	NSR Ewe/%	|Ewe h2|/V	|Ewe h3|/V	|Ewe h4|/V	|Ewe h5|/V	|Ewe h6|/V	|Ewe h7|/V	THD I/%	NSD I/%	NSR I/%	|I h2|/A	|I h3|/A	|I h4|/A	|I h5|/A	|I h6|/A	|I h7|/A	Re(Y)/Ohm-1	Im(Y)/Ohm-1	|Y|/Ohm-1	Phase(Y)/deg	Re(C)/nF	Im(C)/nF	|C|/nF	Phase(C)/deg	Re(M)	Im(M)	|M|	Phase(M)/deg	Re(Permittivity)	Im(Permittivity)	|Permittivity|	Phase(Permittivity)/deg	Re(Resistivity)/Ohm.cm	Im(Resistivity)/Ohm.cm	|Resistivity|/Ohm.cm	Phase(Resistivity)/deg	Re(Conductivity)/mS/cm	Im(Conductivity)/mS/cm	|Conductivity|/mS/cm	Phase(Conductivity)/deg	Tan(Delta)	Loss Angle(Delta)/deg	dq/mA.h
100004	7.84442	0.800084	7.88511	-5.82369	1163.73	0.334477	-0.019722	1.98915	0.0204797	1	38	0.00483547	0.000613241	0	-5.60832e-06	3.14618	0.923671	82.772	9.16841e-05	2.81268e-05	5.20049e-05	8.35024e-05	3.81663e-05	4.93812e-05	0.334638	0.182785	6.15101	1.09528e-06	7.70438e-07	6.75395e-07	7.87685e-07	3.40621e-07	8.06405e-07	0.126167	0.0128683	0.126821	5.82369	20.4797	200.793	201.835	-84.1763	0.0000000E+000	0.0000000E+000	0.0000000E+000	84.1763	0.0000000E+000	0.0000000E+000	0.0000000E+000	-84.1763	0.0000000E+000	0.0000000E+000	0.0000000E+000	-5.82369	0.0000000E+000	0.0000000E+000	0.0000000E+000	5.82369	9.80449	84.1763	-5.60832e-06
63093.8	8.00633	0.762066	8.04251	-5.4372	1165.36	0.334442	-0.00951478	3.3101	0.0297196	1	38	0.00516899	0.000642709	0	-9.56116e-06	4.78676	2.58623	77.6031	0.000189424	4.39101e-05	8.16897e-05	4.81487e-05	4.29454e-05	5.39315e-05	0.406318	0.220215	5.88628	1.53954e-06	7.87683e-07	1.15013e-06	5.65855e-07	9.73504e-07	5.53478e-07	0.12378	0.0117817	0.124339	5.4372	29.7196	312.236	313.647	-84.5628	0.0000000E+000	0.0000000E+000	0.0000000E+000	84.5628	0.0000000E+000	0.0000000E+000	0.0000000E+000	-84.5628	0.0000000E+000	0.0000000E+000	0.0000000E+000	-5.4372	0.0000000E+000	0.0000000E+000	0.0000000E+000	5.4372	10.5061	84.5628	-1.39543e-06
39814.1	8.072	0.911651	8.12331	-6.44368	1166.98	0.334411	-0.0100808	4.38485	0.0552263	1	38	0.00518596	0.000638404	0	-1.40437e-05	2.53168	1.44523	76.4271	9.45755e-05	4.00493e-05	3.51648e-05	4.73462e-05	3.10884e-05	4.18506e-05	0.244839	0.169183	5.87374	9.18119e-07	6.04456e-07	5.89126e-07	4.5341e-07	4.51144e-07	3.9498e-07	0.122325	0.0138154	0.123102	6.44368	55.2263	488.988	492.097	-83.5563	0.0000000E+000	0.0000000E+000	0.0000000E+000	83.5563	0.0000000E+000	0.0000000E+000	0.0000000E+000	-83.5563	0.0000000E+000	0.0000000E+000	0.0000000E+000	-6.44368	0.0000000E+000	0.0000000E+000	0.0000000E+000	6.44368	8.85426	83.5563	-2.6989e-06
25116.9	8.20359	0.990252	8.26314	-6.88284	1168.61	0.334472	-0.00911633	6.39895	0.0918986	1	38	0.00515855	0.000624284	0	-1.99082e-05	4.56383	4.32818	76.8276	5.87338e-05	6.93289e-05	0.000114016	0.000154606	7.26553e-05	1.68248e-05	0.407048	0.252843	5.97928	7.90498e-07	1.006e-06	1.10425e-06	1.65388e-06	4.84166e-07	2.25041e-07	0.120147	0.0145029	0.121019	6.88284	91.8986	761.32	766.847	-83.1172	0.0000000E+000	0.0000000E+000	0.0000000E+000	83.1172	0.0000000E+000	0.0000000E+000	0.0000000E+000	-83.1172	0.0000000E+000	0.0000000E+000	0.0000000E+000	-6.88284	0.0000000E+000	0.0000000E+000	0.0000000E+000	6.88284	8.28435	83.1172	-3.29925e-06
15847.7	8.39247	1.40024	8.50848	-9.47227	1170.24	0.334465	-0.00960043	7.17218	0.194247	1	38	0.00511237	0.000600855	0	-2.42578e-05	3.48871	2.37868	79.3504	5.71956e-05	4.0065e-05	3.25279e-05	0.000110869	6.68029e-05	7.47165e-05	0.350638	0.17061	6.34741	5.29043e-07	6.36865e-07	1.27398e-06	6.81276e-07	1.01031e-06	3.64013e-07	0.115927	0.0193419	0.11753	9.47227	194.247	1164.23	1180.33	-80.5277	0.0000000E+000	0.0000000E+000	0.0000000E+000	80.5277	0.0000000E+000	0.0000000E+000	0.0000000E+000	-80.5277	0.0000000E+000	0.0000000E+000	0.0000000E+000	-9.47227	0.0000000E+000	0.0000000E+000	0.0000000E+000	9.47227	5.99359	80.5277	-1.55662e-06
10002.2	8.67241	2.02287	8.90521	-13.1297	1171.87	0.334467	-0.00916846	7.86603	0.405885	1	38	0.00510138	0.000572853	0	-2.88089e-05	4.00514	2.14842	79.9861	6.74907e-05	0.000103686	5.71686e-05	6.39515e-05	0.000111834	3.1603e-05	0.310834	0.14562	6.60078	3.98355e-07	9.30155e-07	6.01792e-07	5.82612e-07	5.54361e-07	1.04805e-06	0.109358	0.0255082	0.112294	13.1297	405.885	1740.1	1786.81	-76.8703	0.0000000E+000	0.0000000E+000	0.0000000E+000	76.8703	0.0000000E+000	0.0000000E+000	0.0000000E+000	-76.8703	0.0000000E+000	0.0000000E+000	0.0000000E+000	-13.1297	0.0000000E+000	0.0000000E+000	0.0000000E+000	13.1297	4.28718	76.8703	-1.7681e-06
6307.74	8.92992	2.84911	9.37341	-17.6954	1173.62	0.334301	-0.00905488	8.85601	0.8182	1	38	0.0051359	0.000547922	0	-3.28588e-05	3.60799	3.42	77.1962	5.03879e-05	9.57563e-05	4.20308e-05	9.98119e-05	6.49031e-05	2.22395e-05	0.312261	0.387572	7.04068	3.78074e-07	4.44623e-07	8.67769e-07	8.66559e-07	3.85755e-07	8.21532e-07	0.101637	0.0324275	0.106685	17.6954	818.2	2564.48	2691.84	-72.3046	0.0000000E+000	0.0000000E+000	0.0000000E+000	72.3046	0.0000000E+000	0.0000000E+000	0.0000000E+000	-72.3046	0.0000000E+000	0.0000000E+000	0.0000000E+000	-17.6954	0.0000000E+000	0.0000000E+000	0.0000000E+000	17.6954	3.13429	72.3046	-2.25367e-06
[...]
631.01	12.6287	19.2757	23.0443	-56.7687	1181.29	0.334411	-0.00376141	13.085	9.15522	1	38	0.00512858	0.000222554	0	-5.01714e-05	4.7481	2.74825	78.2843	9.16411e-05	8.96229e-05	0.000102079	0.000125277	8.30412e-05	6.3913e-05	0.972062	0.409162	17.5309	8.01816e-07	1.05996e-06	7.24612e-07	8.88777e-07	6.10621e-07	7.96137e-07	0.0237812	0.0362981	0.0433947	56.7687	9155.21	5998.16	10945.1	-33.2313	0.0000000E+000	0.0000000E+000	0.0000000E+000	33.2313	0.0000000E+000	0.0000000E+000	0.0000000E+000	-33.2313	0.0000000E+000	0.0000000E+000	0.0000000E+000	-56.7687	0.0000000E+000	0.0000000E+000	0.0000000E+000	56.7687	0.655163	33.2314	-1.07886e-06
398.089	14.5336	29.2515	32.663	-63.5796	1183.03	0.334339	-0.000980568	13.6676	10.9616	1	39	0.00533331	0.000163283	0	-5.18054e-05	3.35303	2.61808	72.0112	4.4446e-05	7.2049e-05	6.48163e-05	8.29274e-05	5.43705e-05	8.1912e-05	0.629617	0.443179	10.9978	1.83144e-07	7.11735e-07	3.90733e-07	3.1596e-07	2.15252e-07	4.25624e-07	0.0136226	0.027418	0.0306157	63.5796	10961.6	5446.27	12240.1	-26.4204	0.0000000E+000	0.0000000E+000	0.0000000E+000	26.4204	0.0000000E+000	0.0000000E+000	0.0000000E+000	-26.4204	0.0000000E+000	0.0000000E+000	0.0000000E+000	-63.5796	0.0000000E+000	0.0000000E+000	0.0000000E+000	63.5796	0.496849	26.4204	-6.02394e-07
251.206	16.6974	43.9111	46.9786	-69.1804	1184.51	0.3344	-0.00059756	14.4283	12.6056	1	39	0.00513667	0.000109341	0	-5.21009e-05	4.11493	2.20478	73.8742	6.00604e-05	9.0452e-05	6.77198e-05	9.55236e-05	9.51131e-05	9.20515e-05	1.05226	0.495263	15.9101	3.31252e-07	4.32969e-07	1.96536e-07	4.70361e-07	3.01577e-07	7.44072e-07	0.0075657	0.0198964	0.0212863	69.1804	12605.6	4793.35	13486.2	-20.8195	0.0000000E+000	0.0000000E+000	0.0000000E+000	20.8195	0.0000000E+000	0.0000000E+000	0.0000000E+000	-20.8195	0.0000000E+000	0.0000000E+000	0.0000000E+000	-69.1804	0.0000000E+000	0.0000000E+000	0.0000000E+000	69.1804	0.380255	20.8195	-7.15177e-08
158.529	19.7434	65.8577	68.7534	-73.3119	1186.01	0.334359	-0.000764557	15.2442	13.9871	1	39	0.00506967	7.3737e-05	0	-5.25758e-05	3.11373	1.95636	76.3689	6.11585e-05	4.03774e-05	9.2032e-05	6.20921e-05	7.11219e-05	2.90583e-05	1.38224	1.07538	24.3271	4.53986e-07	4.30182e-07	3.09281e-07	3.03433e-07	4.92309e-07	3.73709e-07	0.00417669	0.0139321	0.0145447	73.3119	13987.1	4193.18	14602.2	-16.6881	0.0000000E+000	0.0000000E+000	0.0000000E+000	16.6881	0.0000000E+000	0.0000000E+000	0.0000000E+000	-16.6881	0.0000000E+000	0.0000000E+000	0.0000000E+000	-73.3119	0.0000000E+000	0.0000000E+000	0.0000000E+000	73.3119	0.299788	16.6881	-1.9644e-07
99.9682	26.2359	99.6053	103.003	-75.2435	1187.48	0.334381	-0.000952614	15.9836	14.9467	1	39	0.00504079	4.89384e-05	0	-5.27244e-05	4.4213	2.69192	77.3952	5.49128e-05	4.57559e-05	0.000111981	9.47628e-05	8.21294e-05	0.00010368	2.08234	1.10444	36.5344	4.50374e-07	4.0989e-07	2.94461e-07	5.30564e-07	2.9345e-07	3.79481e-07	0.00247286	0.00938827	0.00970849	75.2435	14946.7	3936.94	15456.5	-14.7565	0.0000000E+000	0.0000000E+000	0.0000000E+000	14.7565	0.0000000E+000	0.0000000E+000	0.0000000E+000	-14.7565	0.0000000E+000	0.0000000E+000	0.0000000E+000	-75.2435	0.0000000E+000	0.0000000E+000	0.0000000E+000	75.2435	0.263399	14.7565	-1.16654e-07

File: 240319-CVEIS_Activation-0p5H2SO4-Ag_AgCl_BLF8-GC_RDE-80cycles_10_PEIS_C15.mpt
EC-Lab ASCII FILE
Nb header lines : 66

Potentio Electrochemical Impedance Spectroscopy

Run on channel : 15 (SN 19485)
User :
Electrode connection : standard
Potential control : Ewe
Ewe ctrl range : min = -2.50 V, max = 2.50 V
Ewe,I filtering : 50 kHz
Safety Limits :
	Do not start on E overload
Channel : Floating
Acquisition started on : 03/19/2024 14:45:18.810
Loaded Setting File :  C:\Data\mathias\GoldElectrode\240313-CVEIS_Activation-0p5H2SO4-Ag_AgCl_BLF8-Au_RDE-80cycles.mps
Saved on :
	File : 240319-CVEIS_Activation-0p5H2SO4-Ag_AgCl_BLF8-GC_RDE-80cycles_10_PEIS_C15.mpr
	Directory : C:\Data\mathias\GoldElectrode\
	Host : 192.168.0.1
Device : VMP-300 (SN 0826)
Address : USB
EC-Lab for windows v11.52 (software)
Internet server v11.52 (firmware)
Command interpretor v11.52 (firmware)
Electrode material :
Initial state :
Electrolyte :
Comments :
Cable : special
Electrode surface area : 0.001 cm²
Characteristic mass : 0.001 g
Equivalent Weight : 0.000 g/eq.
Density : 0.000 g/cm3
Volume (V) : 0.001 cm³
Record EIS quality indicators
Cycle Definition : Charge/Discharge alternance
Mode                Single sine
E (V)               0.0000
vs.                 Eoc
tE (h:m:s)          0:00:0.0000
record              0
dI                  0.000
unit dI             mA
dt (s)              0.000
fi                  100.000
unit fi             kHz
ff                  100.000
unit ff             Hz
Nd                  10
Points              per decade
spacing             Logarithmic
Va (mV)             5.0
pw                  0.10
Na                  2
corr                0
E range min (V)     -2.500
E range max (V)     2.500
I Range             Auto
Bandwidth           8
nc cycles           0
goto Ns'            0
nr cycles           0
inc. cycle          0

freq/Hz	Re(Z)/Ohm	-Im(Z)/Ohm	|Z|/Ohm	Phase(Z)/deg	time/s	<Ewe>/V	<I>/mA	Cs/µF	Cp/µF	cycle number	I Range	|Ewe|/V	|I|/A	Ns	(Q-Qo)/mA.h	THD Ewe/%	NSD Ewe/%	NSR Ewe/%	|Ewe h2|/V	|Ewe h3|/V	|Ewe h4|/V	|Ewe h5|/V	|Ewe h6|/V	|Ewe h7|/V	THD I/%	NSD I/%	NSR I/%	|I h2|/A	|I h3|/A	|I h4|/A	|I h5|/A	|I h6|/A	|I h7|/A	Re(Y)/Ohm-1	Im(Y)/Ohm-1	|Y|/Ohm-1	Phase(Y)/deg	Re(C)/nF	Im(C)/nF	|C|/nF	Phase(C)/deg	Re(M)	Im(M)	|M|	Phase(M)/deg	Re(Permittivity)	Im(Permittivity)	|Permittivity|	Phase(Permittivity)/deg	Re(Resistivity)/Ohm.cm	Im(Resistivity)/Ohm.cm	|Resistivity|/Ohm.cm	Phase(Resistivity)/deg	Re(Conductivity)/mS/cm	Im(Conductivity)/mS/cm	|Conductivity|/mS/cm	Phase(Conductivity)/deg	Tan(Delta)	Loss Angle(Delta)/deg	dq/mA.h
100004	7.91491	0.801883	7.95542	-5.78507	1550.8	0.334438	-0.0204686	1.98469	0.0201645	1	38	0.00488832	0.000614464	0	-6.37295e-06	2.91591	1.63163	83.439	5.08749e-05	4.05998e-05	6.28593e-05	7.19704e-05	4.693e-05	4.02196e-05	0.36436	0.182249	6.14539	6.221e-07	9.56871e-07	8.30847e-07	5.71313e-07	1.29373e-06	8.94472e-07	0.12506	0.0126702	0.1257	5.78507	20.1646	199.032	200.051	-84.2149	0.0000000E+000	0.0000000E+000	0.0000000E+000	84.2149	0.0000000E+000	0.0000000E+000	0.0000000E+000	-84.2149	0.0000000E+000	0.0000000E+000	0.0000000E+000	-5.78507	0.0000000E+000	0.0000000E+000	0.0000000E+000	5.78507	9.8704	84.2149	-6.37295e-06
63093.8	7.93618	0.765893	7.97305	-5.51235	1552.42	0.334423	-0.0108535	3.29356	0.0303915	1	38	0.00535237	0.000671308	0	-1.21253e-05	4.23776	4.62561	74.3817	0.000119413	6.58402e-05	9.93853e-05	8.39651e-05	7.29365e-05	7.1943e-05	0.250774	0.287995	5.71928	7.13476e-07	7.87518e-07	5.4559e-07	6.73341e-07	5.26566e-07	6.98585e-07	0.124842	0.0120481	0.125423	5.51235	30.3915	314.917	316.38	-84.4877	0.0000000E+000	0.0000000E+000	0.0000000E+000	84.4877	0.0000000E+000	0.0000000E+000	0.0000000E+000	-84.4877	0.0000000E+000	0.0000000E+000	0.0000000E+000	-5.51235	0.0000000E+000	0.0000000E+000	0.0000000E+000	5.51235	10.362	84.4877	-2.89683e-06
39814.1	8.0532	0.851988	8.09814	-6.03915	1554.05	0.334481	-0.0109056	4.69191	0.0519334	1	38	0.00516741	0.000638099	0	-1.70465e-05	4.08491	2.1407	78.0495	4.74751e-05	3.80253e-05	0.000123068	0.000103612	2.84585e-05	0.000107858	0.407826	0.234469	5.92528	1.08195e-06	9.42133e-07	1.267e-06	1.21987e-06	1.05694e-06	4.5333e-07	0.1228	0.0129916	0.123485	6.03915	51.9334	490.887	493.626	-83.9609	0.0000000E+000	0.0000000E+000	0.0000000E+000	83.9609	0.0000000E+000	0.0000000E+000	0.0000000E+000	-83.9609	0.0000000E+000	0.0000000E+000	0.0000000E+000	-6.03915	0.0000000E+000	0.0000000E+000	0.0000000E+000	6.03915	9.45224	83.9609	-1.45926e-06
25116.9	8.14765	1.01846	8.21105	-7.12504	1555.68	0.334434	-0.00973821	6.22172	0.0957193	1	38	0.00516896	0.000629513	0	-2.33076e-05	4.68508	2.36485	77.892	0.000120417	7.12573e-05	8.38879e-05	9.62326e-05	4.66722e-05	0.000103093	0.304362	0.201987	6.07382	1.07484e-06	4.56192e-07	5.85432e-07	4.67976e-07	7.44925e-07	7.27876e-07	0.120847	0.0151059	0.121787	7.12504	95.7194	765.753	771.712	-82.875	0.0000000E+000	0.0000000E+000	0.0000000E+000	82.875	0.0000000E+000	0.0000000E+000	0.0000000E+000	-82.875	0.0000000E+000	0.0000000E+000	0.0000000E+000	-7.12504	0.0000000E+000	0.0000000E+000	0.0000000E+000	7.12504	7.99998	82.875	-2.65932e-06
15847.7	8.28062	1.28482	8.3797	-8.81964	1557.31	0.334412	-0.010779	7.81653	0.183754	1	38	0.00518063	0.000618236	0	-2.97135e-05	3.98819	1.51988	76.3588	8.46673e-05	6.03016e-05	0.00014748	2.2908e-05	4.63766e-05	7.94628e-05	0.251188	0.176009	6.13479	7.55556e-07	4.78542e-07	4.94648e-07	4.76746e-07	5.65682e-07	6.19216e-07	0.117925	0.0182971	0.119336	8.81964	183.754	1184.3	1198.47	-81.1804	0.0000000E+000	0.0000000E+000	0.0000000E+000	81.1804	0.0000000E+000	0.0000000E+000	0.0000000E+000	-81.1804	0.0000000E+000	0.0000000E+000	0.0000000E+000	-8.81964	0.0000000E+000	0.0000000E+000	0.0000000E+000	8.81964	6.44499	81.1804	-3.07619e-06
10002.2	8.58096	1.68194	8.74425	-11.0899	1558.94	0.334433	-0.0102987	9.46046	0.350018	1	38	0.0051162	0.000585093	0	-3.52646e-05	3.75379	2.71868	79.3819	3.5845e-05	0.000122794	6.20357e-05	6.67319e-05	5.06108e-05	4.71455e-05	0.331898	0.203128	6.52777	1.24266e-06	6.236e-07	7.80723e-07	5.78608e-07	4.82184e-07	5.19271e-07	0.112225	0.0219972	0.114361	11.0899	350.018	1785.73	1819.71	-78.9101	0.0000000E+000	0.0000000E+000	0.0000000E+000	78.9101	0.0000000E+000	0.0000000E+000	0.0000000E+000	-78.9101	0.0000000E+000	0.0000000E+000	0.0000000E+000	-11.0899	0.0000000E+000	0.0000000E+000	0.0000000E+000	11.0899	5.10181	78.9101	-2.63534e-06
6307.74	8.61055	2.35142	8.92585	-15.2743	1560.68	0.334238	-0.010874	10.7304	0.744695	1	38	0.00508713	0.000569932	0	-4.07794e-05	4.32803	2.14878	77.6017	6.32775e-05	9.38223e-05	0.000125869	9.94585e-05	4.57894e-05	6.50812e-05	0.355095	0.213169	6.59534	6.78262e-07	6.0681e-07	1.38459e-06	5.29327e-07	4.67945e-07	8.07822e-07	0.108077	0.0295142	0.112034	15.2743	744.695	2726.96	2826.81	-74.7257	0.0000000E+000	0.0000000E+000	0.0000000E+000	74.7257	0.0000000E+000	0.0000000E+000	0.0000000E+000	-74.7257	0.0000000E+000	0.0000000E+000	0.0000000E+000	-15.2743	0.0000000E+000	0.0000000E+000	0.0000000E+000	15.2743	3.66185	74.7257	-2.50435e-06
[...]
631.01	11.3206	16.3781	19.9098	-55.3476	1568.57	0.334311	-0.00481527	15.4	10.4211	1	38	0.00484084	0.000243139	0	-5.90836e-05	4.87586	2.63929	83.8357	3.68981e-05	0.000113513	6.30829e-05	0.000115594	9.4715e-05	9.23648e-05	0.909685	0.295763	16.1936	1.0773e-06	9.41051e-07	9.64907e-07	8.46261e-07	3.63282e-07	6.3183e-07	0.0285586	0.0413172	0.0502265	55.3476	10421.1	7203.13	12668.3	-34.6524	0.0000000E+000	0.0000000E+000	0.0000000E+000	34.6524	0.0000000E+000	0.0000000E+000	0.0000000E+000	-34.6524	0.0000000E+000	0.0000000E+000	0.0000000E+000	-55.3476	0.0000000E+000	0.0000000E+000	0.0000000E+000	55.3476	0.691205	34.6524	-1.08571e-06
398.089	12.2686	24.2119	27.1429	-63.1278	1570.31	0.334359	-0.000489457	16.5124	13.1388	1	39	0.00489925	0.000180498	0	-6.102e-05	8.01857	2.95117	80.0193	8.89138e-05	0.000150138	7.85712e-05	9.34052e-05	0.000168506	0.00027089	0.576657	0.28864	9.25365	4.16041e-07	5.26482e-07	1.62702e-07	2.43979e-07	3.7056e-07	5.9467e-07	0.0166527	0.0328637	0.036842	63.1278	13138.8	6657.69	14729.3	-26.8722	0.0000000E+000	0.0000000E+000	0.0000000E+000	26.8722	0.0000000E+000	0.0000000E+000	0.0000000E+000	-26.8722	0.0000000E+000	0.0000000E+000	0.0000000E+000	-63.1278	0.0000000E+000	0.0000000E+000	0.0000000E+000	63.1278	0.506718	26.8722	-6.03341e-07
251.206	13.8607	37.8347	40.2937	-69.8798	1571.8	0.334324	-0.000532327	16.7456	14.7641	1	39	0.00488085	0.000121132	0	-6.14189e-05	4.09929	2.26012	79.8859	4.93277e-05	8.71195e-05	0.000109208	9.90429e-05	5.94553e-05	4.62697e-05	0.984665	0.426038	14.8529	2.75756e-07	3.5856e-07	4.7769e-07	7.04598e-07	5.51257e-07	3.7358e-07	0.0085371	0.0233032	0.0248178	69.8798	14764.1	5408.8	15723.6	-20.1202	0.0000000E+000	0.0000000E+000	0.0000000E+000	20.1202	0.0000000E+000	0.0000000E+000	0.0000000E+000	-20.1202	0.0000000E+000	0.0000000E+000	0.0000000E+000	-69.8798	0.0000000E+000	0.0000000E+000	0.0000000E+000	69.8798	0.366348	20.1202	-2.5518e-07
158.529	17.4678	56.8319	59.4557	-72.9147	1573.29	0.33427	-0.000216043	17.6652	16.1405	1	39	0.00479045	8.05718e-05	0	-6.15693e-05	3.44294	2.12517	79.8183	4.5304e-05	6.78411e-05	3.35096e-05	6.89957e-05	8.09005e-05	8.5267e-05	1.15347	0.676937	21.5938	2.43747e-07	4.88722e-07	3.65392e-07	4.82239e-07	2.69855e-07	3.0688e-07	0.0049414	0.016077	0.0168192	72.9147	16140.5	4960.91	16885.6	-17.0853	0.0000000E+000	0.0000000E+000	0.0000000E+000	17.0853	0.0000000E+000	0.0000000E+000	0.0000000E+000	-17.0853	0.0000000E+000	0.0000000E+000	0.0000000E+000	-72.9147	0.0000000E+000	0.0000000E+000	0.0000000E+000	72.9147	0.307358	17.0853	1.23252e-08
99.9682	20.9699	87.607	90.0817	-76.5387	1574.76	0.33436	-0.000449763	18.1727	17.1879	1	39	0.00479076	5.31823e-05	0	-6.18735e-05	5.59528	3.42992	79.323	7.61038e-05	0.000148611	9.06705e-05	9.61905e-05	0.000118558	7.26489e-05	1.89459	0.556038	32.2992	2.20085e-07	6.27789e-07	4.6692e-07	2.48049e-07	4.28054e-07	1.98559e-07	0.00258419	0.0107961	0.011101	76.5387	17187.9	4114.17	17673.5	-13.4613	0.0000000E+000	0.0000000E+000	0.0000000E+000	13.4613	0.0000000E+000	0.0000000E+000	0.0000000E+000	-13.4613	0.0000000E+000	0.0000000E+000	0.0000000E+000	-76.5387	0.0000000E+000	0.0000000E+000	0.0000000E+000	76.5387	0.239364	13.4613	-1.00605e-07