Folder: Thesis/Python/Data/GoldElectrode/240319/Gold (part 2)

File: 240319-CVEIS_Activation-0p5H2SO4-Ag_AgCl_BLF8-Au_RDE-80cycles_04_PEIS_C15.mpt
EC-Lab ASCII FILE
Nb header lines : 66

Potentio Electrochemical Impedance Spectroscopy

Run on channel : 15 (SN 19485)
User :
Electrode connection : standard
Potential control : Ewe
Ewe ctrl range : min = -2.50 V, max = 2.50 V
Ewe,I filtering : 50 kHz
Safety Limits :
	Do not start on E overload
Channel : Floating
Acquisition started on : 03/19/2024 13:27:19.036
Loaded Setting File :  C:\Data\mathias\GoldElectrode\240313-CVEIS_Activation-0p5H2SO4-Ag_AgCl_BLF8-Au_RDE-80cycles.mps
Saved on :
	File : 240319-CVEIS_Activation-0p5H2SO4-Ag_AgCl_BLF8-Au_RDE-80cycles_04_PEIS_C15.mpr
	Directory : C:\Data\mathias\GoldElectrode\
	Host : 192.168.0.1
Device : VMP-300 (SN 0826)
Address : USB
EC-Lab for windows v11.52 (software)
Internet server v11.52 (firmware)
Command interpretor v11.52 (firmware)
Electrode material :
Initial state :
Electrolyte :
Comments :
Cable : special
Electrode surface area : 0.001 cm²
Characteristic mass : 0.001 g
Equivalent Weight : 0.000 g/eq.
Density : 0.000 g/cm3
Volume (V) : 0.001 cm³
Record EIS quality indicators
Cycle Definition : Charge/Discharge alternance
Mode                Single sine
E (V)               0.0000
vs.                 Eoc
tE (h:m:s)          0:00:0.0000
record              0
dI                  0.000
unit dI             mA
dt (s)              0.000
fi                  100.000
unit fi             kHz
ff                  100.000
unit ff             Hz
Nd                  10
Points              per decade
spacing             Logarithmic
Va (mV)             5.0
pw                  0.10
Na                  2
corr                0
E range min (V)     -2.500
E range max (V)     2.500
I Range             Auto
Bandwidth           8
nc cycles           0
goto Ns'            0
nr cycles           0
inc. cycle          0

freq/Hz	Re(Z)/Ohm	-Im(Z)/Ohm	|Z|/Ohm	Phase(Z)/deg	time/s	<Ewe>/V	<I>/mA	Cs/µF	Cp/µF	cycle number	I Range	|Ewe|/V	|I|/A	Ns	(Q-Qo)/mA.h	THD Ewe/%	NSD Ewe/%	NSR Ewe/%	|Ewe h2|/V	|Ewe h3|/V	|Ewe h4|/V	|Ewe h5|/V	|Ewe h6|/V	|Ewe h7|/V	THD I/%	NSD I/%	NSR I/%	|I h2|/A	|I h3|/A	|I h4|/A	|I h5|/A	|I h6|/A	|I h7|/A	Re(Y)/Ohm-1	Im(Y)/Ohm-1	|Y|/Ohm-1	Phase(Y)/deg	Re(C)/nF	Im(C)/nF	|C|/nF	Phase(C)/deg	Re(M)	Im(M)	|M|	Phase(M)/deg	Re(Permittivity)	Im(Permittivity)	|Permittivity|	Phase(Permittivity)/deg	Re(Resistivity)/Ohm.cm	Im(Resistivity)/Ohm.cm	|Resistivity|/Ohm.cm	Phase(Resistivity)/deg	Re(Conductivity)/mS/cm	Im(Conductivity)/mS/cm	|Conductivity|/mS/cm	Phase(Conductivity)/deg	Tan(Delta)	Loss Angle(Delta)/deg	dq/mA.h
100004	7.6796	0.687911	7.71035	-5.11869	388.996	0.630994	-0.0201465	2.31351	0.0184157	1	38	0.0049362	0.000640205	0	-6.31371e-06	4.21487	1.89323	77.4828	0.000104027	0.000106006	5.73878e-05	4.24545e-05	7.31462e-05	9.89087e-05	0.324846	0.145027	5.88632	7.42793e-07	1.08813e-06	9.80002e-07	7.97787e-07	5.28082e-07	5.52719e-07	0.129179	0.0115714	0.129696	5.11869	18.4157	205.586	206.41	-84.8813	0.0000000E+000	0.0000000E+000	0.0000000E+000	84.8813	0.0000000E+000	0.0000000E+000	0.0000000E+000	-84.8813	0.0000000E+000	0.0000000E+000	0.0000000E+000	-5.11869	0.0000000E+000	0.0000000E+000	0.0000000E+000	5.11869	11.1637	84.8813	-6.31371e-06
63093.8	7.70369	0.504026	7.72016	-3.74333	390.624	0.631034	-0.0100454	5.00473	0.0213321	1	38	0.00520842	0.000674651	0	-1.18659e-05	3.34195	3.95484	71.7589	4.84677e-05	7.41269e-05	6.89583e-05	0.000103392	4.79232e-05	4.85159e-05	0.33118	0.376693	5.54177	1.33903e-06	6.77076e-07	5.68319e-07	1.06157e-06	1.00158e-06	3.42489e-07	0.129255	0.00845667	0.129531	3.74333	21.332	326.046	326.743	-86.2567	0.0000000E+000	0.0000000E+000	0.0000000E+000	86.2567	0.0000000E+000	0.0000000E+000	0.0000000E+000	-86.2567	0.0000000E+000	0.0000000E+000	0.0000000E+000	-3.74333	0.0000000E+000	0.0000000E+000	0.0000000E+000	3.74333	15.2843	86.2567	-3.70571e-06
39814.1	7.59723	0.832333	7.64269	-6.25224	392.252	0.630951	-0.00946078	4.80271	0.0569624	1	38	0.00511017	0.000668635	0	-1.76238e-05	3.56242	1.80975	74.3344	0.000110098	2.86639e-05	4.7996e-05	6.43581e-05	9.37964e-05	2.23503e-05	0.316734	0.12488	5.66466	7.35807e-07	1.21372e-06	8.88687e-07	7.08919e-07	5.95942e-07	4.21943e-07	0.130066	0.0142497	0.130844	6.25224	56.9624	519.932	523.043	-83.7478	0.0000000E+000	0.0000000E+000	0.0000000E+000	83.7478	0.0000000E+000	0.0000000E+000	0.0000000E+000	-83.7478	0.0000000E+000	0.0000000E+000	0.0000000E+000	-6.25224	0.0000000E+000	0.0000000E+000	0.0000000E+000	6.25224	9.12763	83.7478	-2.90653e-06
25116.9	7.80054	1.10993	7.87911	-8.09817	393.88	0.630987	-0.0100492	5.70899	0.113291	1	38	0.00524671	0.000665901	0	-2.10497e-05	3.15741	2.57986	73.4617	5.78939e-05	4.9522e-05	7.29454e-05	6.7269e-05	7.19026e-05	4.28073e-05	0.268933	0.149017	5.66994	1.11923e-06	5.06881e-07	6.10715e-07	5.543e-07	3.29101e-07	8.129e-07	0.125652	0.0178789	0.126918	8.09817	113.291	796.204	804.224	-81.9018	0.0000000E+000	0.0000000E+000	0.0000000E+000	81.9018	0.0000000E+000	0.0000000E+000	0.0000000E+000	-81.9018	0.0000000E+000	0.0000000E+000	0.0000000E+000	-8.09817	0.0000000E+000	0.0000000E+000	0.0000000E+000	8.09817	7.02798	81.9018	-1.22119e-06
15847.7	7.81312	1.55441	7.96624	-11.252	395.508	0.631021	-0.0105016	6.46083	0.245988	1	38	0.00510822	0.000641233	0	-2.5664e-05	4.45752	1.33759	74.574	1.74327e-05	6.31891e-05	0.000169863	5.73802e-05	2.64823e-05	0.000103818	0.366536	0.143467	5.86499	7.00896e-07	3.57817e-07	1.53709e-06	9.79488e-07	6.03293e-07	7.6997e-07	0.123117	0.024494	0.12553	11.252	245.988	1236.44	1260.67	-78.748	0.0000000E+000	0.0000000E+000	0.0000000E+000	78.748	0.0000000E+000	0.0000000E+000	0.0000000E+000	-78.748	0.0000000E+000	0.0000000E+000	0.0000000E+000	-11.252	0.0000000E+000	0.0000000E+000	0.0000000E+000	11.252	5.02641	78.748	-2.69101e-06
10002.2	7.8983	2.05226	8.16057	-14.5654	397.136	0.630936	-0.00910329	7.75339	0.490359	1	38	0.00492772	0.000603845	0	-3.00176e-05	2.71167	1.30021	77.774	2.85356e-05	4.26409e-05	2.87535e-05	8.21547e-05	6.54727e-05	4.16796e-05	0.280975	0.142226	6.27771	5.57621e-07	4.19569e-07	5.02022e-07	5.70148e-07	4.79924e-07	9.66391e-07	0.118602	0.030817	0.122541	14.5654	490.36	1887.19	1949.86	-75.4346	0.0000000E+000	0.0000000E+000	0.0000000E+000	75.4346	0.0000000E+000	0.0000000E+000	0.0000000E+000	-75.4346	0.0000000E+000	0.0000000E+000	0.0000000E+000	-14.5654	0.0000000E+000	0.0000000E+000	0.0000000E+000	14.5654	3.84859	75.4346	-2.46629e-06
6307.74	8.30391	3.05947	8.84959	-20.2257	398.886	0.630907	-0.00900089	8.24708	0.985704	1	38	0.00503417	0.000568859	0	-3.36294e-05	3.60876	2.64381	75.6933	4.90722e-05	8.53176e-05	6.39194e-05	5.06228e-05	7.67935e-05	4.9258e-05	0.407461	0.235664	6.88555	9.33268e-07	6.83445e-07	1.40401e-06	5.60626e-07	8.03721e-07	8.45573e-07	0.106032	0.0390661	0.113	20.2257	985.704	2675.36	2851.17	-69.7743	0.0000000E+000	0.0000000E+000	0.0000000E+000	69.7743	0.0000000E+000	0.0000000E+000	0.0000000E+000	-69.7743	0.0000000E+000	0.0000000E+000	0.0000000E+000	-20.2257	0.0000000E+000	0.0000000E+000	0.0000000E+000	20.2257	2.71417	69.7743	-1.86441e-06
[...]
631.01	12.4719	23.8246	26.8917	-62.3685	406.554	0.630937	-0.00639233	10.5866	8.3095	1	38	0.00494069	0.000183726	0	-5.10536e-05	5.2823	1.51451	76.2161	9.61823e-05	0.000116484	7.10338e-05	0.000147085	9.09119e-05	6.4349e-05	0.991524	0.532162	20.3589	4.83377e-07	5.97102e-07	6.82821e-07	1.0799e-06	8.52513e-07	3.9093e-07	0.0172464	0.0329451	0.0371862	62.3685	8309.5	4349.92	9379.21	-27.6315	0.0000000E+000	0.0000000E+000	0.0000000E+000	27.6315	0.0000000E+000	0.0000000E+000	0.0000000E+000	-27.6315	0.0000000E+000	0.0000000E+000	0.0000000E+000	-62.3685	0.0000000E+000	0.0000000E+000	0.0000000E+000	62.3685	0.523488	27.6315	-1.13266e-06
398.089	15.5206	36.5776	39.7343	-67.0075	408.295	0.630888	-0.000376514	10.9301	9.26243	1	39	0.00516886	0.000130086	0	-5.16496e-05	4.60835	3.29575	72.9787	3.66518e-05	0.000111473	1.1195e-05	9.97387e-05	0.000160517	7.33224e-05	0.836785	0.385796	13.6216	4.31297e-07	4.42492e-07	3.16586e-07	6.0615e-07	3.64789e-07	2.89938e-07	0.00983057	0.0231678	0.0251672	67.0075	9262.43	3930.24	10061.8	-22.9925	0.0000000E+000	0.0000000E+000	0.0000000E+000	22.9925	0.0000000E+000	0.0000000E+000	0.0000000E+000	-22.9925	0.0000000E+000	0.0000000E+000	0.0000000E+000	-67.0075	0.0000000E+000	0.0000000E+000	0.0000000E+000	67.0075	0.42432	22.9925	-6.67012e-08
251.206	19.5938	54.2246	57.656	-70.1329	409.78	0.630931	-0.000553016	11.6841	10.3347	1	39	0.00501267	8.69409e-05	0	-5.17843e-05	3.12712	2.58514	74.0705	6.38877e-05	8.77496e-05	6.75348e-05	3.35786e-05	7.6512e-05	2.1407e-05	0.925465	0.458282	19.3534	1.82749e-07	3.03879e-07	1.77283e-07	2.72737e-07	5.458e-07	2.76602e-07	0.00589425	0.016312	0.0173442	70.1329	10334.7	3734.38	10988.7	-19.8671	0.0000000E+000	0.0000000E+000	0.0000000E+000	19.8671	0.0000000E+000	0.0000000E+000	0.0000000E+000	-19.8671	0.0000000E+000	0.0000000E+000	0.0000000E+000	-70.1329	0.0000000E+000	0.0000000E+000	0.0000000E+000	70.1329	0.361345	19.8671	-1.22872e-07
158.529	26.0956	79.195	83.3836	-71.7624	411.273	0.630866	-0.000572214	12.6769	11.4353	1	39	0.00492703	5.90887e-05	0	-5.18862e-05	2.65652	1.42201	73.6563	7.55994e-05	5.2728e-05	5.06949e-05	5.711e-05	2.15206e-05	4.10698e-05	1.66319	0.534134	29.2075	2.00488e-07	3.98693e-07	3.97416e-07	3.11307e-07	3.01092e-07	4.45741e-07	0.00375324	0.0113903	0.0119928	71.7624	11435.3	3768.06	12040.1	-18.2376	0.0000000E+000	0.0000000E+000	0.0000000E+000	18.2376	0.0000000E+000	0.0000000E+000	0.0000000E+000	-18.2376	0.0000000E+000	0.0000000E+000	0.0000000E+000	-71.7624	0.0000000E+000	0.0000000E+000	0.0000000E+000	71.7624	0.329511	18.2376	-1.0697e-07
99.9682	36.9855	118.707	124.336	-72.6946	412.745	0.63097	-8.96783e-05	13.4116	12.2249	1	39	0.00501305	4.03187e-05	0	-5.20828e-05	4.62835	9.63354	71.9003	6.60853e-05	5.56775e-05	7.59924e-05	8.30644e-05	7.92571e-05	0.000118451	2.19046	2.35266	41.8996	4.91637e-07	1.37063e-07	4.59895e-07	2.97247e-07	3.18727e-07	2.7274e-07	0.00239243	0.00767867	0.00804274	72.6946	12224.9	3808.88	12804.5	-17.3054	0.0000000E+000	0.0000000E+000	0.0000000E+000	17.3054	0.0000000E+000	0.0000000E+000	0.0000000E+000	-17.3054	0.0000000E+000	0.0000000E+000	0.0000000E+000	-72.6946	0.0000000E+000	0.0000000E+000	0.0000000E+000	72.6946	0.311568	17.3054	-6.37818e-08

File: 240319-CVEIS_Activation-0p5H2SO4-Ag_AgCl_BLF8-Au_RDE-80cycles_06_PEIS_C15.mpt
EC-Lab ASCII FILE
Nb header lines : 66

Potentio Electrochemical Impedance Spectroscopy

Run on channel : 15 (SN 19485)
User :
Electrode connection : standard
Potential control : Ewe
Ewe ctrl range : min = -2.50 V, max = 2.50 V
Ewe,I filtering : 50 kHz
Safety Limits :
	Do not start on E overload
Channel : Floating
Acquisition started on : 03/19/2024 13:27:19.036
Loaded Setting File :  C:\Data\mathias\GoldElectrode\240313-CVEIS_Activation-0p5H2SO4-Ag_AgCl_BLF8-Au_RDE-80cycles.mps
Saved on :
	File : 240319-CVEIS_Activation-0p5H2SO4-Ag_AgCl_BLF8-Au_RDE-80cycles_06_PEIS_C15.mpr
	Directory : C:\Data\mathias\GoldElectrode\
	Host : 192.168.0.1
Device : VMP-300 (SN 0826)
Address : USB
EC-Lab for windows v11.52 (software)
Internet server v11.52 (firmware)
Command interpretor v11.52 (firmware)
Electrode material :
Initial state :
Electrolyte :
Comments :
Cable : special
Electrode surface area : 0.001 cm²
Characteristic mass : 0.001 g
Equivalent Weight : 0.000 g/eq.
Density : 0.000 g/cm3
Volume (V) : 0.001 cm³
Record EIS quality indicators
Cycle Definition : Charge/Discharge alternance
Mode                Single sine
E (V)               0.0000
vs.                 Eoc
tE (h:m:s)          0:00:0.0000
record              0
dI                  0.000
unit dI             mA
dt (s)              0.000
fi                  100.000
unit fi             kHz
ff                  100.000
unit ff             Hz
Nd                  10
Points              per decade
spacing             Logarithmic
Va (mV)             5.0
pw                  0.10
Na                  2
corr                0
E range min (V)     -2.500
E range max (V)     2.500
I Range             Auto
Bandwidth           8
nc cycles           0
goto Ns'            0
nr cycles           0
inc. cycle          0

freq/Hz	Re(Z)/Ohm	-Im(Z)/Ohm	|Z|/Ohm	Phase(Z)/deg	time/s	<Ewe>/V	<I>/mA	Cs/µF	Cp/µF	cycle number	I Range	|Ewe|/V	|I|/A	Ns	(Q-Qo)/mA.h	THD Ewe/%	NSD Ewe/%	NSR Ewe/%	|Ewe h2|/V	|Ewe h3|/V	|Ewe h4|/V	|Ewe h5|/V	|Ewe h6|/V	|Ewe h7|/V	THD I/%	NSD I/%	NSR I/%	|I h2|/A	|I h3|/A	|I h4|/A	|I h5|/A	|I h6|/A	|I h7|/A	Re(Y)/Ohm-1	Im(Y)/Ohm-1	|Y|/Ohm-1	Phase(Y)/deg	Re(C)/nF	Im(C)/nF	|C|/nF	Phase(C)/deg	Re(M)	Im(M)	|M|	Phase(M)/deg	Re(Permittivity)	Im(Permittivity)	|Permittivity|	Phase(Permittivity)/deg	Re(Resistivity)/Ohm.cm	Im(Resistivity)/Ohm.cm	|Resistivity|/Ohm.cm	Phase(Resistivity)/deg	Re(Conductivity)/mS/cm	Im(Conductivity)/mS/cm	|Conductivity|/mS/cm	Phase(Conductivity)/deg	Tan(Delta)	Loss Angle(Delta)/deg	dq/mA.h
100004	7.60331	0.599291	7.62689	-4.50672	776.068	0.631081	-0.0177334	2.65562	0.0163963	1	38	0.00478025	0.000626762	0	-4.57166e-06	4.33659	1.48602	78.6719	4.88474e-05	0.000149142	3.43189e-05	8.38644e-05	5.84095e-05	7.09271e-05	0.30507	0.157356	6.1578	3.23946e-07	1.41946e-06	5.6029e-07	6.36025e-07	5.79694e-07	3.29935e-07	0.13071	0.0103025	0.131115	4.50672	16.3963	208.023	208.668	-85.4933	0.0000000E+000	0.0000000E+000	0.0000000E+000	85.4933	0.0000000E+000	0.0000000E+000	0.0000000E+000	-85.4933	0.0000000E+000	0.0000000E+000	0.0000000E+000	-4.50672	0.0000000E+000	0.0000000E+000	0.0000000E+000	4.50672	12.6872	85.4933	-4.57166e-06
63093.8	7.64266	0.687904	7.67356	-5.14324	777.696	0.631026	-0.00838458	3.66695	0.0294691	1	38	0.00522881	0.000681406	0	-9.9343e-06	4.4525	4.95867	73.3431	2.58667e-05	9.69279e-05	8.67758e-05	0.00016958	5.20378e-05	4.95247e-05	0.376445	0.338323	5.57782	3.71722e-07	6.09446e-07	1.00728e-06	1.91981e-06	7.98514e-07	3.49602e-07	0.129793	0.0116825	0.130318	5.14324	29.4691	327.404	328.728	-84.8568	0.0000000E+000	0.0000000E+000	0.0000000E+000	84.8568	0.0000000E+000	0.0000000E+000	0.0000000E+000	-84.8568	0.0000000E+000	0.0000000E+000	0.0000000E+000	-5.14324	0.0000000E+000	0.0000000E+000	0.0000000E+000	5.14324	11.1101	84.8568	-3.28833e-06
39814.1	7.67763	0.810531	7.7203	-6.02642	779.324	0.631033	-0.00824122	4.9319	0.0543607	1	38	0.00522309	0.000676541	0	-1.37429e-05	3.25348	1.27577	74.822	8.57043e-05	3.71106e-05	9.80815e-05	2.78605e-05	6.56624e-05	5.77627e-05	0.253496	0.187706	5.64478	6.65526e-07	1.12368e-06	4.88587e-07	4.49e-07	5.27063e-07	4.4555e-07	0.128813	0.0135988	0.129529	6.02642	54.3608	514.924	517.785	-83.9736	0.0000000E+000	0.0000000E+000	0.0000000E+000	83.9736	0.0000000E+000	0.0000000E+000	0.0000000E+000	-83.9736	0.0000000E+000	0.0000000E+000	0.0000000E+000	-6.02642	0.0000000E+000	0.0000000E+000	0.0000000E+000	6.02642	9.47235	83.9736	-1.55737e-06
25116.9	7.74034	1.0955	7.81748	-8.05566	780.952	0.631043	-0.00860802	5.78416	0.113588	1	38	0.00519324	0.000664311	0	-1.56424e-05	8.63367	1.20323	74.8205	0.000412442	7.54177e-05	7.29561e-05	5.55292e-05	2.27085e-05	0.000116736	0.588892	0.200025	5.70955	3.35431e-06	9.90077e-07	9.84882e-07	7.38712e-07	6.95541e-07	6.9879e-07	0.126656	0.0179259	0.127918	8.05566	113.588	802.566	810.564	-81.9443	0.0000000E+000	0.0000000E+000	0.0000000E+000	81.9443	0.0000000E+000	0.0000000E+000	0.0000000E+000	-81.9443	0.0000000E+000	0.0000000E+000	0.0000000E+000	-8.05566	0.0000000E+000	0.0000000E+000	0.0000000E+000	8.05566	7.06556	81.9443	-7.27489e-07
15847.7	7.84662	1.41008	7.97231	-10.1876	782.58	0.631027	-0.00842182	7.12215	0.222807	1	38	0.00510582	0.000640444	0	-1.92112e-05	4.28508	1.34211	75.9282	8.61626e-05	3.03144e-05	7.95854e-05	0.000146056	8.02953e-05	6.21386e-05	0.318874	0.138854	5.88631	2.49073e-07	9.45936e-07	5.28238e-07	1.10602e-06	1.0548e-06	6.79557e-07	0.123457	0.0221858	0.125434	10.1876	222.807	1239.85	1259.71	-79.8124	0.0000000E+000	0.0000000E+000	0.0000000E+000	79.8124	0.0000000E+000	0.0000000E+000	0.0000000E+000	-79.8124	0.0000000E+000	0.0000000E+000	0.0000000E+000	-10.1876	0.0000000E+000	0.0000000E+000	0.0000000E+000	10.1876	5.56467	79.8124	-1.1282e-06
10002.2	8.05437	2.04137	8.30904	-14.2221	784.208	0.631014	-0.00808481	7.79475	0.470483	1	38	0.00521065	0.000627106	0	-2.17033e-05	3.43259	1.42927	74.7284	3.99375e-05	6.71971e-05	6.66796e-05	7.6935e-05	9.17949e-05	4.81096e-05	0.217685	0.184522	6.04615	6.91184e-08	5.27145e-07	4.74276e-07	8.30453e-07	6.38186e-07	4.1005e-07	0.116662	0.0295679	0.120351	14.2221	470.483	1856.32	1915.02	-75.7779	0.0000000E+000	0.0000000E+000	0.0000000E+000	75.7779	0.0000000E+000	0.0000000E+000	0.0000000E+000	-75.7779	0.0000000E+000	0.0000000E+000	0.0000000E+000	-14.2221	0.0000000E+000	0.0000000E+000	0.0000000E+000	14.2221	3.94558	75.7779	-1.36696e-06
6307.74	8.1885	2.92799	8.69624	-19.6757	785.956	0.630851	-0.00811461	8.61742	0.976906	1	38	0.0051129	0.000587943	0	-2.4947e-05	4.84539	3.50781	73.5728	3.05475e-05	8.41352e-05	5.06971e-05	0.000179592	2.2987e-05	0.000108051	0.386603	0.292734	6.48285	7.97727e-07	6.85571e-07	9.42712e-07	1.37586e-06	6.00312e-07	8.20165e-07	0.108278	0.0387174	0.114992	19.6757	976.907	2732.04	2901.45	-70.3243	0.0000000E+000	0.0000000E+000	0.0000000E+000	70.3243	0.0000000E+000	0.0000000E+000	0.0000000E+000	-70.3243	0.0000000E+000	0.0000000E+000	0.0000000E+000	-19.6757	0.0000000E+000	0.0000000E+000	0.0000000E+000	19.6757	2.79663	70.3243	-1.32881e-06
[...]
631.01	11.3827	22.7231	25.4147	-63.3923	793.622	0.630852	-0.0048041	11.0998	8.87324	1	38	0.00493269	0.000194088	0	-3.76027e-05	4.23997	3.20635	78.6766	4.63276e-05	5.23065e-05	8.2206e-05	0.000136143	5.50385e-05	8.00281e-05	0.962512	0.356498	19.6213	7.52817e-07	8.04177e-07	5.88476e-07	7.68452e-07	3.88795e-07	8.70289e-07	0.0176228	0.0351802	0.0393473	63.3923	8873.24	4444.88	9924.28	-26.6077	0.0000000E+000	0.0000000E+000	0.0000000E+000	26.6077	0.0000000E+000	0.0000000E+000	0.0000000E+000	-26.6077	0.0000000E+000	0.0000000E+000	0.0000000E+000	-63.3923	0.0000000E+000	0.0000000E+000	0.0000000E+000	63.3923	0.500931	26.6077	-5.3309e-07
398.089	14.1216	34.0765	36.8866	-67.4904	795.363	0.630897	-0.000589918	11.7324	10.0128	1	39	0.00506366	0.000137276	0	-3.8219e-05	4.4143	3.2316	73.8244	5.45064e-05	4.30603e-05	4.22148e-05	7.44083e-05	7.93568e-05	0.000174364	0.834108	0.534487	12.7027	5.38544e-07	6.57712e-07	3.12515e-07	3.25438e-07	4.05884e-07	4.0137e-07	0.0103788	0.0250447	0.0271101	67.4904	10012.8	4149.4	10838.5	-22.5096	0.0000000E+000	0.0000000E+000	0.0000000E+000	22.5096	0.0000000E+000	0.0000000E+000	0.0000000E+000	-22.5096	0.0000000E+000	0.0000000E+000	0.0000000E+000	-67.4904	0.0000000E+000	0.0000000E+000	0.0000000E+000	67.4904	0.414409	22.5096	-1.23804e-07
251.206	18.7313	51.4807	54.7825	-70.0061	796.848	0.63092	-0.000206909	12.3068	10.868	1	39	0.00501826	9.16034e-05	0	-3.8543e-05	2.87644	1.48714	74.3934	9.30882e-05	3.88148e-05	3.96704e-05	3.9237e-05	4.73742e-05	6.56555e-05	1.11463	0.540443	18.1817	6.63546e-07	2.14282e-07	1.96191e-07	2.61289e-07	4.89009e-07	4.08261e-07	0.00624141	0.0171538	0.018254	70.0061	10868	3954.33	11565.1	-19.9939	0.0000000E+000	0.0000000E+000	0.0000000E+000	19.9939	0.0000000E+000	0.0000000E+000	0.0000000E+000	-19.9939	0.0000000E+000	0.0000000E+000	0.0000000E+000	-70.0061	0.0000000E+000	0.0000000E+000	0.0000000E+000	70.0061	0.36385	19.9939	-1.94872e-07
158.529	24.0472	76.5808	80.2676	-72.5672	798.339	0.630917	-0.000504744	13.1097	11.933	1	39	0.00494731	6.16353e-05	0	-3.85799e-05	2.48164	1.80274	75.9955	2.70544e-05	5.22165e-05	5.32707e-05	6.11146e-05	4.53842e-05	3.41223e-05	1.51904	0.542284	28.1265	3.71723e-07	3.38904e-07	2.74612e-07	4.75168e-07	3.55264e-07	3.05482e-07	0.00373236	0.0118861	0.0124583	72.5672	11933	3747.1	12507.5	-17.4328	0.0000000E+000	0.0000000E+000	0.0000000E+000	17.4328	0.0000000E+000	0.0000000E+000	0.0000000E+000	-17.4328	0.0000000E+000	0.0000000E+000	0.0000000E+000	-72.5672	0.0000000E+000	0.0000000E+000	0.0000000E+000	72.5672	0.314011	17.4328	3.47226e-08
99.9682	32.3373	115.795	120.226	-74.397	799.813	0.631004	-0.000570164	13.7489	12.7542	1	39	0.00507072	4.21765e-05	0	-3.88211e-05	9.30609	6.52581	72.2031	0.000167801	0.000191938	0.000167114	5.19976e-05	0.000343397	7.9599e-05	2.95634	1.39023	39.9109	4.02538e-07	4.70514e-07	1.17157e-07	6.02513e-07	4.5253e-07	7.1324e-07	0.00223721	0.00801115	0.00831767	74.397	12754.2	3561.77	13242.2	-15.603	0.0000000E+000	0.0000000E+000	0.0000000E+000	15.603	0.0000000E+000	0.0000000E+000	0.0000000E+000	-15.603	0.0000000E+000	0.0000000E+000	0.0000000E+000	-74.397	0.0000000E+000	0.0000000E+000	0.0000000E+000	74.397	0.279262	15.6031	-9.58414e-08