Folder: Thesis/Python/Data/GoldElectrode/240319/Gold (part 4)

File: 240319-CVEIS_PostActivation-Fe2Fe3_5mM-HCl1M-0RPM-Ag_AgCl_BLF8-Au_RDE_01_CV_C15.mpt
EC-Lab ASCII FILE
Nb header lines : 60

Cyclic Voltammetry

Run on channel : 15 (SN 19485)
User :
Electrode connection : standard
Potential control : Ewe
Ewe ctrl range : min = -1.00 V, max = 1.00 V
Ewe,I filtering : <None>
Safety Limits :
	Do not start on E overload
Channel : Floating
Acquisition started on : 03/19/2024 15:57:04.315
Loaded Setting File :  NONE
Saved on :
	File : 240319-CVEIS_PostActivation-Fe2Fe3_5mM-HCl1M-0RPM-Ag_AgCl_BLF8-Au_RDE_01_CV_C15.mpr
	Directory : C:\Data\mathias\GoldElectrode\
	Host : 192.168.0.1
Device : VMP-300 (SN 0826)
Address : USB
EC-Lab for windows v11.52 (software)
Internet server v11.52 (firmware)
Command interpretor v11.52 (firmware)
Electrode material :
Initial state :
Electrolyte :
Comments :
Cable : special
Electrode surface area : 0.001 cm²
Characteristic mass : 0.001 g
Equivalent Weight : 0.000 g/eq.
Density : 0.000 g/cm3
Volume (V) : 0.001 cm³
Record EIS quality indicators
Cycle Definition : Charge/Discharge alternance
Ei (V)              0.000
vs.                 Eoc
dE/dt               20.000
dE/dt unit          mV/s
E1 (V)              0.700
vs.                 Ref
Step percent        50
N                   10
E range min (V)     -1.000
E range max (V)     1.000
I Range             Auto
I Range min         Unset
I Range max         Unset
I Range init        Unset
Bandwidth           8
E2 (V)              0.000
vs.                 Ref
nc cycles           1
Reverse Scan        1
Ef (V)              0.000
vs.                 Eoc

mode	ox/red	error	control changes	counter inc.	time/s	control/V	Ewe/V	<I>/mA	cycle number	(Q-Qo)/C	I Range	step time/s	P/W
2	1	1	0	0	0.000000000000000E+000	0.462033	0.461565	0.0186797	1	0.0000000E+000	41	0.000000000000000E+000	8.6219e-06
2	1	0	1	0	1.1632	0.485295	0.485337	0.0805603	1	6.65863e-05	41	1.1494	3.90988e-05
2	1	0	1	0	2.3377	0.508786	0.508928	0.0921857	1	0.000170968	41	2.3239	4.69158e-05
2	1	0	1	0	3.5122	0.532275	0.531804	0.0850345	1	0.000275968	41	3.4984	4.52217e-05
2	1	0	1	0	4.6866	0.555764	0.555446	0.0738696	1	0.000369291	41	4.6728	4.10306e-05
2	1	0	1	0	5.8611	0.579253	0.57917	0.0643124	1	0.000450244	41	5.8473	3.72478e-05
2	1	0	1	0	7.0355	0.602743	0.602837	0.0571896	1	0.000521413	41	7.0217	3.4476e-05
2	1	0	1	0	8.21	0.626232	0.62578	0.0522374	1	0.000585526	41	8.1962	3.26891e-05
2	1	0	1	0	9.3844	0.649721	0.649626	0.0490238	1	0.000644844	41	9.3706	3.18471e-05
2	1	0	1	0	10.5589	0.67321	0.672457	0.047781	1	0.000701491	41	10.5451	3.21307e-05
2	1	0	1	0	11.7334	0.6967	0.696216	0.0493147	1	0.000758168	41	11.7196	3.43337e-05
2	1	0	1	0	12.8609	0.680756	0.680378	0.0387446	1	0.000806948	41	12.8471	2.6361e-05
2	1	0	1	0	14.0353	0.657267	0.656776	0.0356603	1	0.000850283	41	14.0215	2.34208e-05
2	1	0	1	0	15.2098	0.633778	0.633681	0.0341576	1	0.000891184	41	15.196	2.1645e-05
2	1	0	1	0	16.3842	0.610289	0.609869	0.0327518	1	0.000930459	41	16.3704	1.99743e-05
2	1	0	1	0	17.5587	0.5868	0.586727	0.0305324	1	0.000967728	41	17.5449	1.79142e-05
2	1	0	1	0	18.7332	0.563311	0.562817	0.0264954	1	0.00100147	41	18.7194	1.49121e-05
2	1	0	1	0	19.9076	0.539822	0.539543	0.0178813	1	0.0010281	41	19.8938	9.64773e-06
2	0	0	1	0	21.112	0.515735	0.515455	-0.000489283	1	0.00103983	42	0.000000000000000E+000	-2.52203e-07
2	0	0	1	0	22.3165	0.491644	0.491182	-0.0344153	1	0.0010205	41	1.2045	-1.69042e-05
2	0	0	1	0	23.491	0.468153	0.467946	-0.0807007	1	0.000953419	41	2.379	-3.77636e-05
2	0	0	1	0	24.6954	0.444066	0.443723	-0.120679	1	0.000829641	40	3.5834	-5.3548e-05
2	0	0	1	0	25.8698	0.420577	0.420368	-0.133616	1	0.000676717	40	4.7578	-5.61679e-05
2	0	0	1	0	27.0443	0.397088	0.396826	-0.123884	1	0.000523427	40	5.9323	-4.91604e-05
2	0	0	1	0	28.2188	0.373598	0.373186	-0.106287	1	0.000387324	40	7.1068	-3.9665e-05
2	0	0	1	0	29.3932	0.35011	0.3499	-0.0905794	1	0.000271117	40	8.2812	-3.16938e-05
2	0	0	1	0	30.5677	0.326621	0.326317	-0.0782909	1	0.000171376	40	9.4557	-2.55476e-05
2	0	0	1	0	31.7421	0.303132	0.302816	-0.0691564	1	8.41328e-05	40	10.6301	-2.09417e-05
2	0	0	1	0	32.9166	0.279643	0.279222	-0.0622648	1	6.20014e-06	40	11.8046	-1.73857e-05
2	0	0	1	0	34.091	0.256153	0.256232	-0.0569645	1	-6.46674e-05	40	12.979	-1.45961e-05
2	0	0	1	0	35.2655	0.232664	0.232417	-0.0525953	1	-0.000130033	40	14.1535	-1.2224e-05
2	0	0	1	0	36.4399	0.209175	0.208955	-0.0490358	1	-0.000190981	40	15.3279	-1.02463e-05
2	0	0	1	0	37.6144	0.185686	0.185442	-0.0461605	1	-0.000248351	40	16.5024	-8.56009e-06
2	0	0	1	0	38.7888	0.162198	0.161913	-0.0437668	1	-0.000302796	40	17.6768	-7.08643e-06
2	0	0	1	0	39.9933	0.138108	0.138175	-0.0432421	1	-0.000356076	41	18.8813	-5.975e-06
2	0	0	1	0	41.1677	0.114619	0.114337	-0.0416177	1	-0.000405918	41	20.0557	-4.75846e-06
2	0	0	1	0	42.3422	0.0911301	0.0908397	-0.0401981	1	-0.000453985	41	21.2302	-3.65158e-06
2	0	0	1	0	43.5166	0.0676428	0.06725	-0.0390257	1	-0.000500517	41	22.4046	-2.62447e-06
2	0	0	1	0	44.6911	0.0441519	0.0436879	-0.0379654	1	-0.000545722	41	23.5791	-1.65863e-06
2	0	0	1	0	45.8656	0.0206628	0.0208247	-0.0370461	1	-0.000589774	41	24.7536	-7.71474e-07
2	0	0	1	1	47.0132	0.00227134	0.00178788	-0.0354022	1	-0.000631778	41	25.9012	-6.32948e-08
2	0	0	1	1	48.1876	0.0257604	0.0255594	-0.0345596	1	-0.000672808	41	27.0756	-8.83323e-07
2	0	0	1	1	49.3621	0.0492495	0.0489684	-0.0339033	1	-0.000712971	41	28.2501	-1.66019e-06
2	0	0	1	1	50.5365	0.0727386	0.0729466	-0.0333286	1	-0.000752409	41	29.4245	-2.43121e-06
2	0	0	1	1	51.711	0.0962277	0.0961354	-0.032849	1	-0.00079125	41	30.599	-3.15795e-06
2	0	0	1	1	52.8854	0.119717	0.119681	-0.0323773	1	-0.000829557	41	31.7734	-3.87494e-06
2	0	0	1	1	54.0599	0.143206	0.142539	-0.0319634	1	-0.000867353	41	32.9479	-4.55603e-06
2	0	0	1	1	55.2344	0.166697	0.166597	-0.0316268	1	-0.000904687	41	34.1224	-5.26894e-06
2	0	0	1	1	56.4088	0.190184	0.189889	-0.0312839	1	-0.000941613	41	35.2968	-5.94046e-06
2	0	0	1	1	57.5833	0.213673	0.213169	-0.0310162	1	-0.000978177	41	36.4713	-6.61168e-06
2	0	0	1	1	58.7577	0.237162	0.237308	-0.0306795	1	-0.00101438	41	37.6457	-7.28049e-06
2	0	0	1	1	59.9322	0.260651	0.260475	-0.0303268	1	-0.00105017	41	38.8202	-7.89936e-06
2	0	0	1	1	61.1066	0.28414	0.28399	-0.0297951	1	-0.00108547	41	39.9946	-8.46151e-06
2	0	0	1	1	62.2811	0.30763	0.308094	-0.028935	1	-0.00111998	41	41.1691	-8.91469e-06
2	0	0	1	1	63.4555	0.331119	0.331053	-0.0270606	1	-0.00115297	41	42.3435	-8.9585e-06
2	0	0	1	1	64.63	0.354608	0.354202	-0.0232027	1	-0.00118277	41	43.518	-8.21846e-06
2	0	0	1	1	65.8044	0.378097	0.378394	-0.0148561	1	-0.00120568	41	44.6924	-5.62145e-06
2	1	0	1	1	67.0089	0.402186	0.401903	0.00328031	1	-0.00121389	42	0.1499	1.31837e-06
2	1	0	1	1	68.2133	0.426274	0.426093	0.0367108	1	-0.00119145	41	1.3543	1.56422e-05
2	1	0	1	1	69.3878	0.449764	0.44959	0.0814938	1	-0.00112248	41	2.5288	3.66388e-05
2	1	0	1	1	70.5547	0.473103	0.472664	0.118273	2	-0.00100369	40	3.6957	5.59035e-05
2	1	0	1	1	71.7292	0.496592	0.496242	0.129771	2	-0.000854466	40	4.8702	6.43977e-05
2	1	0	1	1	72.9036	0.520081	0.519868	0.119575	2	-0.000705646	40	6.0446	6.2163e-05
2	1	0	1	1	74.0781	0.54357	0.543288	0.102445	2	-0.000573967	40	7.2191	5.56572e-05
2	1	0	1	1	75.2526	0.567059	0.5667	0.0867954	2	-0.000461808	40	8.3936	4.9187e-05
2	1	0	1	1	76.427	0.590548	0.590018	0.0750315	2	-0.000365829	40	9.568	4.42699e-05
2	1	0	1	1	77.6015	0.614037	0.613801	0.0666451	2	-0.000281976	40	10.7425	4.09069e-05
[...]
2	1	0	1	1	90.4885	0.528227	0.527854	0.0130832	2	0.000276492	41	23.6295	6.90601e-06
2	0	0	1	1	91.723	0.503539	0.503362	-0.0130047	2	0.000278157	41	0.5048	-6.54607e-06
2	0	0	1	1	92.8974	0.480049	0.479856	-0.0540401	2	0.000240046	41	1.6792	-2.59315e-05
2	0	0	1	1	94.0719	0.45656	0.45626	-0.100431	2	0.000148785	41	2.8537	-4.58226e-05
2	0	0	1	1	95.2763	0.432472	0.431993	-0.128042	2	7.85051e-06	40	4.0581	-5.53134e-05
2	0	0	1	1	96.4508	0.408982	0.408721	-0.128208	2	-0.000145751	40	5.2326	-5.24011e-05
2	0	0	1	1	97.6252	0.385493	0.384878	-0.113122	2	-0.00028905	40	6.407	-4.35383e-05
2	0	0	1	1	98.7997	0.362004	0.361659	-0.0961572	2	-0.000412904	40	7.5815	-3.47762e-05
2	0	0	1	1	99.9741	0.338515	0.338355	-0.0824814	2	-0.000518569	40	8.7559	-2.7908e-05
2	0	0	1	1	101.149	0.315026	0.314635	-0.0722848	2	-0.000610101	40	9.9304	-2.27433e-05
2	0	0	1	1	102.323	0.291538	0.29132	-0.0644544	2	-0.000691087	40	11.1048	-1.87768e-05
2	0	0	1	1	103.497	0.268048	0.26762	-0.058642	2	-0.00076419	40	12.2793	-1.56938e-05
2	0	0	1	1	104.672	0.244559	0.244048	-0.0538914	2	-0.000831263	40	13.4538	-1.31521e-05
2	0	0	1	1	105.846	0.22107	0.220665	-0.0500729	2	-0.000893592	40	14.6282	-1.10493e-05
2	0	0	1	1	107.021	0.197581	0.197417	-0.0469514	2	-0.000952073	40	15.8027	-9.26898e-06
2	0	0	1	1	108.195	0.174092	0.173646	-0.0444472	2	-0.00100743	40	16.9771	-7.71805e-06
2	0	0	1	1	109.4	0.150003	0.149712	-0.0439254	2	-0.00106153	41	18.1816	-6.57614e-06
2	0	0	1	1	110.574	0.126514	0.126205	-0.0421897	2	-0.00111209	41	19.356	-5.32457e-06
2	0	0	1	1	111.749	0.103025	0.102897	-0.0408224	2	-0.00116085	41	20.5305	-4.20051e-06
2	0	0	1	1	112.923	0.0795355	0.0790175	-0.0395928	2	-0.00120807	41	21.7049	-3.12852e-06
2	0	0	1	1	114.098	0.0560464	0.0559366	-0.0385828	2	-0.00125397	41	22.8794	-2.15819e-06
2	0	0	1	1	115.272	0.0325573	0.0320085	-0.0375968	2	-0.0012987	41	24.0538	-1.20342e-06
2	0	0	1	1	116.446	0.00906818	0.0087045	-0.0368098	2	-0.00134243	41	25.2283	-3.20411e-07
2	0	0	1	0	117.589	0.013766	0.0138316	-0.035168	2	-0.00138346	41	26.3709	-4.8643e-07
2	0	0	1	0	118.764	0.037256	0.0370268	-0.0344578	2	-0.0014243	41	27.5454	-1.27586e-06
2	0	0	1	0	119.938	0.0607442	0.0604075	-0.0338949	2	-0.00146439	41	28.7198	-2.04751e-06
2	0	0	1	0	121.112	0.0842333	0.0840517	-0.0333718	2	-0.00150385	41	29.8943	-2.80496e-06
2	0	0	1	0	122.287	0.107722	0.107582	-0.0329458	2	-0.00154275	41	31.0687	-3.54437e-06
2	0	0	1	0	123.461	0.131211	0.130884	-0.0326059	2	-0.00158118	41	32.2432	-4.26759e-06
2	0	0	1	0	124.636	0.154701	0.154053	-0.032192	2	-0.00161919	41	33.4176	-4.95927e-06
2	0	0	1	0	125.81	0.17819	0.177832	-0.03189	2	-0.00165681	41	34.5921	-5.67106e-06
2	0	0	1	0	126.985	0.201679	0.201491	-0.0315868	2	-0.00169407	41	35.7665	-6.36446e-06
2	0	0	1	0	128.159	0.225168	0.224997	-0.0312735	2	-0.00173099	41	36.941	-7.03644e-06
2	0	0	1	0	129.334	0.248657	0.24824	-0.0309205	2	-0.00176753	41	38.1154	-7.67572e-06
2	0	0	1	0	130.508	0.272146	0.271516	-0.0305301	2	-0.00180363	41	39.2899	-8.28942e-06
2	0	0	1	0	131.683	0.295635	0.295306	-0.0299019	2	-0.00183913	41	40.4644	-8.83023e-06
2	0	0	1	0	132.857	0.319124	0.318911	-0.0285892	2	-0.00187355	41	41.6388	-9.11741e-06
2	0	0	1	0	134.031	0.342613	0.342134	-0.0260135	2	-0.0019058	41	42.8133	-8.90011e-06
2	0	0	1	0	135.206	0.366102	0.366141	-0.0202787	2	-0.00193341	41	43.9877	-7.42484e-06
2	0	0	1	0	136.38	0.389591	0.389645	-0.00823467	2	-0.00195107	41	45.1622	-3.2086e-06
2	1	0	1	0	137.615	0.41428	0.413777	0.0175918	2	-0.00194706	41	0.7297	7.27908e-06
2	1	0	1	0	138.789	0.437769	0.437321	0.0575907	2	-0.00190414	41	1.9042	2.51856e-05
2	1	0	1	0	139.883	0.459684	0.459797	0.0994306	2	-0.00181779	41	2.9979	4.57179e-05

File: 240319-CVEIS_PostActivation-Fe2Fe3_5mM-HCl1M-0RPM-Ag_AgCl_BLF8-Au_RDE_02_PEIS_C15.mpt
EC-Lab ASCII FILE
Nb header lines : 66

Potentio Electrochemical Impedance Spectroscopy

Run on channel : 15 (SN 19485)
User :
Electrode connection : standard
Potential control : Ewe
Ewe ctrl range : min = -1.00 V, max = 1.00 V
Ewe,I filtering : <None>
Safety Limits :
	Do not start on E overload
Channel : Floating
Acquisition started on : 03/19/2024 15:57:04.315
Loaded Setting File :  NONE
Saved on :
	File : 240319-CVEIS_PostActivation-Fe2Fe3_5mM-HCl1M-0RPM-Ag_AgCl_BLF8-Au_RDE_02_PEIS_C15.mpr
	Directory : C:\Data\mathias\GoldElectrode\
	Host : 192.168.0.1
Device : VMP-300 (SN 0826)
Address : USB
EC-Lab for windows v11.52 (software)
Internet server v11.52 (firmware)
Command interpretor v11.52 (firmware)
Electrode material :
Initial state :
Electrolyte :
Comments :
Cable : special
Electrode surface area : 0.001 cm²
Characteristic mass : 0.001 g
Equivalent Weight : 0.000 g/eq.
Density : 0.000 g/cm3
Volume (V) : 0.001 cm³
Record EIS quality indicators
Cycle Definition : Charge/Discharge alternance
Mode                Single sine
E (V)               0.0000
vs.                 Eoc
tE (h:m:s)          0:01:0.0000
record              0
dI                  0.000
unit dI             mA
dt (s)              0.000
fi                  400.000
unit fi             kHz
ff                  100.000
unit ff             mHz
Nd                  10
Points              per decade
spacing             Logarithmic
Va (mV)             5.0
pw                  0.10
Na                  3
corr                0
E range min (V)     -1.000
E range max (V)     1.000
I Range             Auto
Bandwidth           8
nc cycles           2
goto Ns'            0
nr cycles           0
inc. cycle          1

freq/Hz	Re(Z)/Ohm	-Im(Z)/Ohm	|Z|/Ohm	Phase(Z)/deg	time/s	<Ewe>/V	<I>/mA	Cs/µF	Cp/µF	cycle number	I Range	|Ewe|/V	|I|/A	Ns	(Q-Qo)/mA.h	THD Ewe/%	NSD Ewe/%	NSR Ewe/%	|Ewe h2|/V	|Ewe h3|/V	|Ewe h4|/V	|Ewe h5|/V	|Ewe h6|/V	|Ewe h7|/V	THD I/%	NSD I/%	NSR I/%	|I h2|/A	|I h3|/A	|I h4|/A	|I h5|/A	|I h6|/A	|I h7|/A	Re(Y)/Ohm-1	Im(Y)/Ohm-1	|Y|/Ohm-1	Phase(Y)/deg	Re(C)/nF	Im(C)/nF	|C|/nF	Phase(C)/deg	Re(M)	Im(M)	|M|	Phase(M)/deg	Re(Permittivity)	Im(Permittivity)	|Permittivity|	Phase(Permittivity)/deg	Re(Resistivity)/Ohm.cm	Im(Resistivity)/Ohm.cm	|Resistivity|/Ohm.cm	Phase(Resistivity)/deg	Re(Conductivity)/mS/cm	Im(Conductivity)/mS/cm	|Conductivity|/mS/cm	Phase(Conductivity)/deg	Tan(Delta)	Loss Angle(Delta)/deg	dq/mA.h
399996	3.37575	1.41151	3.65897	-22.6914	203.374	0.459561	-0.0130506	0.28189	0.04195	1	38	0.00494287	0.00135089	0	7.73631e-05	-1	-1	-1	0	0	0	0	0	0	-1	-1	-1	0	0	0	0	0	0	0.252147	0.105431	0.273301	22.6914	41.95	100.327	108.744	-67.3086	0.0000000E+000	0.0000000E+000	0.0000000E+000	67.3086	0.0000000E+000	0.0000000E+000	0.0000000E+000	-67.3086	0.0000000E+000	0.0000000E+000	0.0000000E+000	-22.6914	0.0000000E+000	0.0000000E+000	0.0000000E+000	22.6914	2.39158	67.3086	7.73631e-05
20032.3	3.74702	0.819331	3.83555	-12.3343	218.288	0.459555	-0.000678018	9.69684	0.442479	1	38	0.00517628	0.00134955	0	6.06283e-05	1.83568	0.470844	29.7134	4.00592e-05	3.28662e-05	4.01586e-05	3.22362e-05	3.2409e-05	3.46116e-05	0.144024	0.0419826	2.44118	8.50171e-07	7.74182e-07	7.23028e-07	6.67218e-07	9.31366e-07	5.25001e-07	0.254701	0.0556934	0.260719	12.3343	442.479	2023.58	2071.39	-77.6657	0.0000000E+000	0.0000000E+000	0.0000000E+000	77.6657	0.0000000E+000	0.0000000E+000	0.0000000E+000	-77.6657	0.0000000E+000	0.0000000E+000	0.0000000E+000	-12.3343	0.0000000E+000	0.0000000E+000	0.0000000E+000	12.3343	4.57327	77.6657	-9.06016e-07
1002.75	6.10058	6.33338	8.79368	-46.0727	233.45	0.459473	-0.00184361	25.0606	12.9993	1	38	0.00527405	0.000599755	0	5.5924e-05	1.58191	0.62658	28.0153	2.18236e-05	4.5815e-05	2.91305e-05	3.66583e-05	2.60677e-05	2.0112e-05	0.503805	0.175667	5.48104	2.0046e-06	1.4031e-06	6.20048e-07	9.61425e-07	5.45226e-07	7.05136e-07	0.0788914	0.081902	0.113718	46.0727	12999.4	12521.5	18049.1	-43.9273	0.0000000E+000	0.0000000E+000	0.0000000E+000	43.9273	0.0000000E+000	0.0000000E+000	0.0000000E+000	-43.9273	0.0000000E+000	0.0000000E+000	0.0000000E+000	-46.0727	0.0000000E+000	0.0000000E+000	0.0000000E+000	46.0727	0.963241	43.9273	-3.55507e-07
50.2089	34.2352	20.4217	39.8635	-30.8166	247.99	0.459471	0.000379627	155.22	40.7363	1	39	0.00506611	0.000127086	0	5.57461e-05	1.7317	1.13584	29.3661	2.61912e-05	3.9451e-05	4.38512e-05	3.15134e-05	2.26828e-05	3.45232e-05	0.709426	0.337507	12.508	3.19178e-07	2.88632e-07	3.83764e-07	4.32565e-07	3.45846e-07	3.25635e-07	0.0215438	0.0128511	0.0250856	30.8166	40736.3	68290.8	79517.8	-59.1834	0.0000000E+000	0.0000000E+000	0.0000000E+000	59.1834	0.0000000E+000	0.0000000E+000	0.0000000E+000	-59.1834	0.0000000E+000	0.0000000E+000	0.0000000E+000	-30.8166	0.0000000E+000	0.0000000E+000	0.0000000E+000	30.8166	1.67641	59.1834	1.47236e-07
2.51368	85.2092	49.4374	98.5122	-30.1218	267.288	0.459467	6.11384e-05	1280.72	322.542	1	40	0.00507122	5.14781e-05	0	5.6072e-05	0.725835	0.504064	19.6314	6.24109e-06	1.6711e-05	1.70372e-05	1.72704e-05	1.15218e-05	1.59491e-05	0.364071	0.222878	2.48038	1.5995e-07	3.44792e-08	3.58424e-08	6.94665e-08	2.55711e-08	2.57934e-08	0.00878024	0.00509419	0.010151	30.1218	322542	555926	642718	-59.8782	0.0000000E+000	0.0000000E+000	0.0000000E+000	59.8782	0.0000000E+000	0.0000000E+000	0.0000000E+000	-59.8782	0.0000000E+000	0.0000000E+000	0.0000000E+000	-30.1218	0.0000000E+000	0.0000000E+000	0.0000000E+000	30.1218	1.72358	59.8782	2.21686e-07
0.125939	244.611	192.064	311.003	-38.1383	498.746	0.459487	0.000220089	6579.85	2509.44	1	41	0.00506266	1.62785e-05	0	5.95223e-05	0.216204	0.109448	4.04457	5.66684e-06	5.64153e-06	2.73788e-06	4.93484e-06	1.73142e-06	2.67757e-06	0.30151	0.244904	0.774837	3.12739e-08	1.6355e-08	1.01502e-08	2.04371e-08	6.22638e-09	8.44151e-09	0.00252898	0.00198571	0.0032154	38.1383	2.50944e+06	3.196e+06	4.06346e+06	-51.8617	0.0000000E+000	0.0000000E+000	0.0000000E+000	51.8617	0.0000000E+000	0.0000000E+000	0.0000000E+000	-51.8617	0.0000000E+000	0.0000000E+000	0.0000000E+000	-38.1383	0.0000000E+000	0.0000000E+000	0.0000000E+000	38.1383	1.27359	51.8617	8.91296e-07
31751	3.59596	0.743007	3.67192	-11.6743	575.496	0.459604	-0.0011193	6.74636	0.276229	2	38	0.00514006	0.00139983	0	5.04585e-05	1.30992	0.776826	24.6132	1.88272e-05	2.79484e-05	3.00496e-05	1.65023e-05	3.65813e-05	1.87968e-05	0.140671	0.102649	2.14182	9.62556e-07	9.32555e-07	5.10335e-07	5.37632e-07	8.38389e-07	5.83061e-07	0.266704	0.055107	0.272337	11.6743	276.229	1336.88	1365.12	-78.3257	0.0000000E+000	0.0000000E+000	0.0000000E+000	78.3257	0.0000000E+000	0.0000000E+000	0.0000000E+000	-78.3257	0.0000000E+000	0.0000000E+000	0.0000000E+000	-11.6743	0.0000000E+000	0.0000000E+000	0.0000000E+000	11.6743	4.83974	78.3257	-3.22753e-06
1589.49	5.16843	4.53693	6.87724	-41.2772	590.736	0.459455	-0.0023966	22.0699	9.60496	2	38	0.00543665	0.000790528	0	4.35878e-05	1.17559	0.956723	22.5028	2.72886e-05	2.14859e-05	2.05131e-05	2.89969e-05	2.32664e-05	2.21924e-05	0.296406	0.119116	3.80505	1.54771e-06	8.74942e-07	8.0588e-07	7.17624e-07	6.75341e-07	3.30602e-07	0.109277	0.0959254	0.145407	41.2772	9604.96	10941.9	14559.5	-48.7228	0.0000000E+000	0.0000000E+000	0.0000000E+000	48.7228	0.0000000E+000	0.0000000E+000	0.0000000E+000	-48.7228	0.0000000E+000	0.0000000E+000	0.0000000E+000	-41.2772	0.0000000E+000	0.0000000E+000	0.0000000E+000	41.2772	1.13919	48.7228	-1.32521e-06
[...]
2519.19	4.63412	3.16277	5.61054	-34.3134	948.188	0.459435	-0.00208193	19.9752	6.34772	3	38	0.00533413	0.000950734	0	6.28988e-05	1.09208	0.705279	27.8164	1.30658e-05	2.4156e-05	3.04517e-05	1.46625e-05	1.54943e-05	2.83747e-05	0.242169	0.17225	3.50398	1.66815e-06	4.75089e-07	7.0844e-07	8.28146e-07	3.68133e-07	6.49865e-07	0.147217	0.100475	0.178236	34.3134	6347.72	9300.72	11260.4	-55.6866	0.0000000E+000	0.0000000E+000	0.0000000E+000	55.6866	0.0000000E+000	0.0000000E+000	0.0000000E+000	-55.6866	0.0000000E+000	0.0000000E+000	0.0000000E+000	-34.3134	0.0000000E+000	0.0000000E+000	0.0000000E+000	34.3134	1.46521	55.6866	-3.27975e-07
126.171	24.3829	19.5121	31.2289	-38.6681	962.82	0.45948	0.00027656	64.6483	25.2377	3	39	0.00497415	0.00015928	0	6.08632e-05	1.68867	0.894847	29.8375	3.54899e-05	4.75335e-05	2.4153e-05	2.61934e-05	3.34132e-05	2.39957e-05	0.715014	0.299441	9.72998	7.4716e-07	3.17545e-07	1.36058e-07	5.33789e-07	3.44065e-07	3.32452e-07	0.0250018	0.0200074	0.0320216	38.6681	25237.7	31537.8	40392.8	-51.3319	0.0000000E+000	0.0000000E+000	0.0000000E+000	51.3319	0.0000000E+000	0.0000000E+000	0.0000000E+000	-51.3319	0.0000000E+000	0.0000000E+000	0.0000000E+000	-38.6681	0.0000000E+000	0.0000000E+000	0.0000000E+000	38.6681	1.24963	51.3319	2.40556e-07
6.31569	69.2064	36.1315	78.0705	-27.5683	977.255	0.459447	0.000544012	697.451	149.387	3	39	0.00492009	6.30211e-05	0	6.27893e-05	0.975556	0.65272	21.1389	1.93376e-05	1.46026e-05	1.90575e-05	1.5206e-05	2.65515e-05	1.23238e-05	0.84224	0.58149	17.1444	2.0108e-07	1.30787e-07	2.10611e-07	1.85158e-07	2.79993e-07	1.77878e-07	0.0113546	0.00592805	0.0128089	27.5683	149387	286135	322784	-62.4317	0.0000000E+000	0.0000000E+000	0.0000000E+000	62.4317	0.0000000E+000	0.0000000E+000	0.0000000E+000	-62.4317	0.0000000E+000	0.0000000E+000	0.0000000E+000	-27.5683	0.0000000E+000	0.0000000E+000	0.0000000E+000	27.5683	1.9154	62.4317	9.37792e-07
0.316193	175.644	124.177	215.106	-35.2596	1074.73	0.459469	0.000485248	4053.47	1350.84	3	41	0.00490657	2.281e-05	0	7.29328e-05	0.563036	0.326944	9.92733	1.00304e-05	9.2282e-06	6.73643e-06	8.23044e-06	1.28844e-05	1.53436e-05	0.36705	0.1409	0.834165	7.34172e-08	1.80665e-08	9.67408e-09	2.78175e-08	5.53545e-09	8.35809e-09	0.00379601	0.00268371	0.00464887	35.2596	1.35084e+06	1.91071e+06	2.34e+06	-54.7404	0.0000000E+000	0.0000000E+000	0.0000000E+000	54.7404	0.0000000E+000	0.0000000E+000	0.0000000E+000	-54.7404	0.0000000E+000	0.0000000E+000	0.0000000E+000	-35.2596	0.0000000E+000	0.0000000E+000	0.0000000E+000	35.2596	1.41447	54.7404	-9.86666e-07
0.0999518	273.914	215.88	348.759	-38.2427	1279.31	0.459461	0.000603718	7375.95	2826.11	3	41	0.00490479	1.40635e-05	0	0.000106772	0.304064	0.167422	6.14977	6.0785e-06	8.12195e-06	3.9038e-06	6.63236e-06	5.05001e-06	2.81362e-06	0.357776	0.181259	0.966623	4.39525e-08	9.59747e-09	5.4761e-09	1.98772e-08	3.95088e-09	4.40323e-09	0.00225197	0.00177484	0.00286731	38.2427	2.82611e+06	3.58585e+06	4.56566e+06	-51.7573	0.0000000E+000	0.0000000E+000	0.0000000E+000	51.7573	0.0000000E+000	0.0000000E+000	0.0000000E+000	-51.7573	0.0000000E+000	0.0000000E+000	0.0000000E+000	-38.2427	0.0000000E+000	0.0000000E+000	0.0000000E+000	38.2427	1.26883	51.7573	6.10543e-06