Folder: Thesis/Python/Data/GoldElectrode/240319/Gold (part 5)

File: 240319-CVEIS_PostActivation-Fe2Fe3_5mM-HCl1M-0225RPM-Ag_AgCl_BLF8-Au_RDE_01_CV_C15.mpt
EC-Lab ASCII FILE
Nb header lines : 60

Cyclic Voltammetry

Run on channel : 15 (SN 19485)
User :
Electrode connection : standard
Potential control : Ewe
Ewe ctrl range : min = -1.00 V, max = 1.00 V
Ewe,I filtering : <None>
Safety Limits :
	Do not start on E overload
Channel : Floating
Acquisition started on : 03/19/2024 16:25:12.456
Loaded Setting File :  NONE
Saved on :
	File : 240319-CVEIS_PostActivation-Fe2Fe3_5mM-HCl1M-0225RPM-Ag_AgCl_BLF8-Au_RDE_01_CV_C15.mpr
	Directory : C:\Data\mathias\GoldElectrode\
	Host : 192.168.0.1
Device : VMP-300 (SN 0826)
Address : USB
EC-Lab for windows v11.52 (software)
Internet server v11.52 (firmware)
Command interpretor v11.52 (firmware)
Electrode material :
Initial state :
Electrolyte :
Comments :
Cable : special
Electrode surface area : 0.001 cm²
Characteristic mass : 0.001 g
Equivalent Weight : 0.000 g/eq.
Density : 0.000 g/cm3
Volume (V) : 0.001 cm³
Record EIS quality indicators
Cycle Definition : Charge/Discharge alternance
Ei (V)              0.000
vs.                 Eoc
dE/dt               20.000
dE/dt unit          mV/s
E1 (V)              0.700
vs.                 Ref
Step percent        50
N                   10
E range min (V)     -1.000
E range max (V)     1.000
I Range             Auto
I Range min         Unset
I Range max         Unset
I Range init        Unset
Bandwidth           8
E2 (V)              0.000
vs.                 Ref
nc cycles           1
Reverse Scan        1
Ef (V)              0.000
vs.                 Eoc

mode	ox/red	error	control changes	counter inc.	time/s	control/V	Ewe/V	<I>/mA	cycle number	(Q-Qo)/C	I Range	step time/s	P/W
2	1	0	0	0	0.000000000000000E+000	0.460734	0.460988	0.0184032	1	0.0000000E+000	41	0.000000000000000E+000	8.48366e-06
2	1	0	1	0	1.1632	0.483996	0.48388	0.089003	1	6.87096e-05	41	1.1494	4.30668e-05
2	1	0	1	0	2.3677	0.508086	0.507749	0.125906	1	0.000201081	40	2.3539	6.39286e-05
2	1	0	1	0	3.5422	0.531577	0.531459	0.144838	1	0.000362411	40	3.5284	7.69753e-05
2	1	0	1	0	4.7166	0.555065	0.554887	0.154243	1	0.000539747	40	4.7028	8.55875e-05
2	1	0	1	0	5.8911	0.578554	0.578231	0.159371	1	0.000725245	40	5.8773	9.21533e-05
2	1	0	1	0	7.0655	0.602043	0.601896	0.162564	1	0.000915346	40	7.0517	9.78464e-05
2	1	0	1	0	8.24	0.625532	0.625116	0.165121	1	0.00110839	40	8.2262	0.00010322
2	1	0	1	0	9.4144	0.649021	0.648893	0.167298	1	0.00130396	40	9.4006	0.000108558
2	1	0	1	0	10.5889	0.67251	0.672167	0.170529	1	0.00150257	40	10.5751	0.000114624
2	1	0	1	0	11.7633	0.695999	0.695911	0.175546	1	0.0017057	40	11.7495	0.000122165
2	1	0	1	0	12.8757	0.681756	0.681542	0.168542	1	0.00189682	40	12.8619	0.000114868
2	1	0	1	0	14.0502	0.658267	0.658076	0.165817	1	0.00209273	40	14.0364	0.00010912
2	1	0	1	0	15.2246	0.634778	0.634665	0.164011	1	0.00228606	40	15.2108	0.000104092
2	1	0	1	0	16.3991	0.611289	0.610874	0.161841	1	0.00247703	40	16.3853	9.88642e-05
2	1	0	1	0	17.5736	0.587799	0.587492	0.158663	1	0.00266471	40	17.5598	9.32133e-05
2	1	0	1	0	18.748	0.56431	0.564098	0.152834	1	0.00284682	40	18.7342	8.62133e-05
2	1	0	1	0	19.9225	0.540821	0.540454	0.140713	1	0.00301863	40	19.9087	7.60491e-05
2	1	0	1	0	21.0969	0.517332	0.517084	0.117087	1	0.00317026	40	21.0831	6.05437e-05
2	1	0	1	0	22.2714	0.493843	0.493632	0.0744955	1	0.00328377	40	22.2576	3.67733e-05
2	1	0	1	0	23.4758	0.469754	0.469167	0.00854132	1	0.00333509	41	23.462	4.00731e-06
2	0	0	1	0	24.6503	0.446265	0.446015	-0.061505	1	0.00330332	41	0.9996	-2.74322e-05
2	0	0	1	0	25.8547	0.422176	0.422088	-0.115389	1	0.00319368	40	2.204	-4.87042e-05
2	0	0	1	0	27.0292	0.398687	0.398481	-0.145417	1	0.00303764	40	3.3785	-5.79458e-05
2	0	0	1	0	28.2036	0.375198	0.37462	-0.159547	1	0.00285651	40	4.5529	-5.97696e-05
2	0	0	1	0	29.3781	0.351709	0.351603	-0.166844	1	0.00266331	40	5.7274	-5.86628e-05
2	0	0	1	0	30.5525	0.32822	0.328211	-0.170504	1	0.00246401	40	6.9018	-5.59614e-05
2	0	0	1	0	31.727	0.304731	0.304646	-0.172567	1	0.00226141	40	8.0763	-5.25719e-05
2	0	0	1	0	32.9014	0.281242	0.280968	-0.173944	1	0.00205678	40	9.2507	-4.88727e-05
2	0	0	1	0	34.0759	0.257753	0.257561	-0.174783	1	0.00185079	40	10.4252	-4.50171e-05
2	0	0	1	0	35.2504	0.234263	0.233595	-0.175425	1	0.00164381	40	11.5997	-4.09785e-05
2	0	0	1	0	36.4248	0.210775	0.21063	-0.175439	1	0.0014364	40	12.7741	-3.69527e-05
2	0	0	1	0	37.5993	0.187285	0.18676	-0.175673	1	0.00122855	40	13.9486	-3.28088e-05
2	0	0	1	0	38.7737	0.163796	0.163647	-0.175771	1	0.00102043	40	15.123	-2.87644e-05
2	0	0	1	0	39.9482	0.140307	0.140223	-0.175977	1	0.00081188	40	16.2975	-2.4676e-05
2	0	0	1	0	41.1226	0.116818	0.116534	-0.175976	1	0.000603208	40	17.4719	-2.05072e-05
2	0	0	1	0	42.2971	0.0933291	0.0929319	-0.175943	1	0.000394259	40	18.6464	-1.63507e-05
2	0	0	1	0	43.4715	0.06984	0.0695172	-0.176224	1	0.000185404	40	19.8208	-1.22506e-05
2	0	0	1	0	44.646	0.0463509	0.0460496	-0.17653	1	-2.36263e-05	40	20.9953	-8.12914e-06
2	0	0	1	0	45.8204	0.0228618	0.0225536	-0.176509	1	-0.000232454	40	22.1697	-3.9809e-06
2	0	0	0	1	46.9642	2.60811e-06	-0.000313635	-0.177407	1	-0.000435802	40	23.3135	5.5641e-08
2	0	0	1	1	48.1274	0.0232616	0.0230877	-0.17783	1	-0.000641193	40	24.4767	-4.10569e-06
2	0	0	1	1	49.3019	0.0467507	0.0463818	-0.177561	1	-0.000848262	40	25.6512	-8.23561e-06
2	0	0	1	1	50.4764	0.0702398	0.0701706	-0.177655	1	-0.00105517	40	26.8257	-1.24661e-05
2	0	0	1	1	51.6508	0.0937289	0.0935617	-0.177602	1	-0.00126192	40	28.0001	-1.66167e-05
2	0	0	1	1	52.8253	0.117218	0.116992	-0.17767	1	-0.0014685	40	29.1746	-2.0786e-05
2	0	0	1	1	53.9997	0.140707	0.140492	-0.177706	1	-0.00167503	40	30.349	-2.49664e-05
2	0	0	1	1	55.1742	0.164196	0.163881	-0.177176	1	-0.00188133	40	31.5235	-2.90357e-05
2	0	0	1	1	56.3486	0.187685	0.187621	-0.176452	1	-0.00208703	40	32.6979	-3.31061e-05
2	0	0	1	1	57.5231	0.211174	0.210985	-0.175511	1	-0.0022921	40	33.8724	-3.70302e-05
2	0	0	1	1	58.6975	0.234663	0.234291	-0.174334	1	-0.00249609	40	35.0468	-4.08448e-05
2	0	0	1	1	59.872	0.258152	0.257812	-0.172676	1	-0.00269862	40	36.2213	-4.45181e-05
2	0	0	1	1	61.0464	0.281641	0.281567	-0.170427	1	-0.00289897	40	37.3957	-4.79865e-05
2	0	0	1	1	62.2209	0.305131	0.304797	-0.167092	1	-0.00309616	40	38.5702	-5.0929e-05
2	0	0	1	1	63.3954	0.32862	0.328389	-0.162221	1	-0.00328861	40	39.7447	-5.32716e-05
2	0	0	1	1	64.5698	0.352109	0.351918	-0.155051	1	-0.00347421	40	40.9191	-5.45652e-05
2	0	0	1	1	65.7443	0.375598	0.375132	-0.142266	1	-0.00364871	40	42.0936	-5.33686e-05
2	0	0	1	1	66.9187	0.399087	0.398944	-0.117725	1	-0.00380192	40	43.268	-4.69658e-05
2	0	0	1	1	68.0932	0.422576	0.422226	-0.0740323	1	-0.00391552	40	44.4425	-3.12584e-05
2	0	0	1	1	69.2976	0.446665	0.44648	-0.00907515	1	-0.00396668	41	45.6469	-4.05187e-06
2	1	0	1	1	70.4721	0.470154	0.469762	0.057929	2	-0.00393719	41	0.9996	2.72128e-05
2	1	0	1	1	71.6465	0.493643	0.493118	0.108381	2	-0.00383726	41	2.174	5.34444e-05
2	1	0	1	1	72.851	0.517732	0.517654	0.136791	2	-0.00368708	40	3.3785	7.08106e-05
2	1	0	1	1	74.0254	0.541221	0.540871	0.150545	2	-0.00351625	40	4.5529	8.14253e-05
2	1	0	1	1	75.1999	0.56471	0.564362	0.157635	2	-0.0033336	40	5.7274	8.89632e-05
2	1	0	1	1	76.3743	0.588199	0.587973	0.16159	2	-0.00314489	40	6.9018	9.50104e-05
2	1	0	1	1	77.5488	0.611688	0.611232	0.164298	2	-0.00295271	40	8.0763	0.000100424
2	1	0	1	1	78.7232	0.635177	0.634874	0.166349	2	-0.00275808	40	9.2507	0.000105611
2	1	0	1	1	79.8977	0.658667	0.658489	0.168659	2	-0.00256105	40	10.4252	0.00011106
[...]
2	1	0	1	1	91.5727	0.507837	0.507628	0.102558	2	-0.000722763	40	22.1002	5.20611e-05
2	1	0	1	1	92.7472	0.484347	0.484042	0.0511859	2	-0.000631372	40	23.2747	2.47761e-05
2	0	0	1	1	93.9516	0.460259	0.460152	-0.0201143	2	-0.00061219	41	0.2999	-9.25566e-06
2	0	0	1	1	95.126	0.43677	0.43636	-0.0858459	2	-0.0006761	41	1.4743	-3.74597e-05
2	0	0	1	1	96.3305	0.412681	0.41239	-0.129803	2	-0.00080912	40	2.6788	-5.35293e-05
2	0	0	1	1	97.5049	0.389192	0.388835	-0.15249	2	-0.000977522	40	3.8532	-5.92933e-05
2	0	0	1	1	98.6794	0.365703	0.365331	-0.163314	2	-0.00116477	40	5.0277	-5.96638e-05
2	0	0	1	1	99.8538	0.342215	0.341702	-0.168813	2	-0.0013614	40	6.2021	-5.76836e-05
2	0	0	1	1	101.028	0.318724	0.318294	-0.17205	2	-0.00156276	40	7.3766	-5.47627e-05
2	0	0	1	1	102.203	0.295235	0.294958	-0.173902	2	-0.00176701	40	8.5511	-5.12939e-05
2	0	0	1	1	103.377	0.271746	0.271314	-0.174826	2	-0.00197286	40	9.7255	-4.74327e-05
2	0	0	1	1	104.552	0.248257	0.247955	-0.175432	2	-0.00217978	40	10.9	-4.34992e-05
2	0	0	1	1	105.726	0.224768	0.224548	-0.175993	2	-0.00238744	40	12.0744	-3.95189e-05
2	0	0	1	1	106.901	0.201279	0.201101	-0.176272	2	-0.00259576	40	13.2489	-3.54485e-05
2	0	0	1	1	108.075	0.17779	0.177479	-0.175972	2	-0.0028043	40	14.4233	-3.12314e-05
2	0	0	1	1	109.249	0.154301	0.154342	-0.176291	2	-0.00301319	40	15.5978	-2.72092e-05
2	0	0	1	1	110.424	0.130811	0.130337	-0.176062	2	-0.00322236	40	16.7723	-2.29474e-05
2	0	0	1	1	111.598	0.107323	0.107095	-0.176096	2	-0.00343131	40	17.9467	-1.88589e-05
2	0	0	1	1	112.773	0.0838335	0.0835812	-0.176394	2	-0.00364045	40	19.1212	-1.47432e-05
2	0	0	1	1	113.947	0.0603444	0.0601906	-0.17646	2	-0.00384953	40	20.2956	-1.06212e-05
2	0	0	1	1	115.122	0.0368553	0.036318	-0.176438	2	-0.00405856	40	21.4701	-6.40786e-06
2	0	0	1	1	116.296	0.0133662	0.0130777	-0.176836	2	-0.00426758	40	22.6445	-2.31261e-06
2	0	0	1	0	117.429	0.00926809	0.00923237	-0.178361	2	-0.00446876	40	23.7771	-1.64669e-06
2	0	0	1	0	118.603	0.0327572	0.0328186	-0.17818	2	-0.00467653	40	24.9515	-5.84762e-06
2	0	0	1	0	119.778	0.0562463	0.0563844	-0.178252	2	-0.00488418	40	26.126	-1.00506e-05
2	0	0	1	0	120.952	0.0797354	0.0793139	-0.178167	2	-0.00509181	40	27.3004	-1.41311e-05
2	0	0	1	0	122.127	0.103224	0.102876	-0.177995	2	-0.00529916	40	28.4749	-1.83114e-05
2	0	0	1	0	123.301	0.126714	0.126354	-0.177924	2	-0.00550594	40	29.6493	-2.24814e-05
2	0	0	1	0	124.475	0.150203	0.149922	-0.177558	2	-0.00571244	40	30.8238	-2.66199e-05
2	0	0	1	0	125.65	0.173692	0.173632	-0.177124	2	-0.00591868	40	31.9983	-3.07544e-05
2	0	0	1	0	126.824	0.197181	0.196957	-0.175679	2	-0.00612386	40	33.1727	-3.46011e-05
2	0	0	1	0	127.999	0.22067	0.220527	-0.174824	2	-0.00632804	40	34.3472	-3.85534e-05
2	0	0	1	0	129.173	0.244159	0.243857	-0.173238	2	-0.0065311	40	35.5216	-4.22452e-05
2	0	0	1	0	130.348	0.267648	0.267435	-0.171471	2	-0.00673225	40	36.6961	-4.58574e-05
2	0	0	1	0	131.522	0.291137	0.290962	-0.168836	2	-0.00693089	40	37.8705	-4.9125e-05
2	0	0	1	0	132.697	0.314626	0.314302	-0.16488	2	-0.00712574	40	39.045	-5.18222e-05
2	0	0	1	0	133.871	0.338115	0.337781	-0.159414	2	-0.0073153	40	40.2194	-5.38469e-05
2	0	0	1	0	135.046	0.361605	0.361349	-0.150855	2	-0.0074969	40	41.3939	-5.45113e-05
2	0	0	1	0	136.22	0.385093	0.384932	-0.134071	2	-0.00766416	40	42.5683	-5.16081e-05
2	0	0	1	0	137.394	0.408583	0.408355	-0.102175	2	-0.00780369	40	43.7428	-4.17238e-05
2	0	0	1	0	138.569	0.432072	0.431781	-0.0504486	2	-0.00789427	40	44.9173	-2.17828e-05
2	1	0	1	0	139.773	0.456161	0.455971	0.0189481	2	-0.00791346	41	0.2999	8.6398e-06
2	1	0	0	0	139.883	0.458385	0.458205	0.0253193	2	-0.00791103	41	0.4093	1.16014e-05

File: 240319-CVEIS_PostActivation-Fe2Fe3_5mM-HCl1M-0225RPM-Ag_AgCl_BLF8-Au_RDE_02_PEIS_C15.mpt
EC-Lab ASCII FILE
Nb header lines : 66

Potentio Electrochemical Impedance Spectroscopy

Run on channel : 15 (SN 19485)
User :
Electrode connection : standard
Potential control : Ewe
Ewe ctrl range : min = -1.00 V, max = 1.00 V
Ewe,I filtering : <None>
Safety Limits :
	Do not start on E overload
Channel : Floating
Acquisition started on : 03/19/2024 16:25:12.456
Loaded Setting File :  NONE
Saved on :
	File : 240319-CVEIS_PostActivation-Fe2Fe3_5mM-HCl1M-0225RPM-Ag_AgCl_BLF8-Au_RDE_02_PEIS_C15.mpr
	Directory : C:\Data\mathias\GoldElectrode\
	Host : 192.168.0.1
Device : VMP-300 (SN 0826)
Address : USB
EC-Lab for windows v11.52 (software)
Internet server v11.52 (firmware)
Command interpretor v11.52 (firmware)
Electrode material :
Initial state :
Electrolyte :
Comments :
Cable : special
Electrode surface area : 0.001 cm²
Characteristic mass : 0.001 g
Equivalent Weight : 0.000 g/eq.
Density : 0.000 g/cm3
Volume (V) : 0.001 cm³
Record EIS quality indicators
Cycle Definition : Charge/Discharge alternance
Mode                Single sine
E (V)               0.0000
vs.                 Eoc
tE (h:m:s)          0:01:0.0000
record              0
dI                  0.000
unit dI             mA
dt (s)              0.000
fi                  400.000
unit fi             kHz
ff                  100.000
unit ff             mHz
Nd                  10
Points              per decade
spacing             Logarithmic
Va (mV)             5.0
pw                  0.10
Na                  3
corr                0
E range min (V)     -1.000
E range max (V)     1.000
I Range             Auto
Bandwidth           8
nc cycles           2
goto Ns'            0
nr cycles           0
inc. cycle          1

freq/Hz	Re(Z)/Ohm	-Im(Z)/Ohm	|Z|/Ohm	Phase(Z)/deg	time/s	<Ewe>/V	<I>/mA	Cs/µF	Cp/µF	cycle number	I Range	|Ewe|/V	|I|/A	Ns	(Q-Qo)/mA.h	THD Ewe/%	NSD Ewe/%	NSR Ewe/%	|Ewe h2|/V	|Ewe h3|/V	|Ewe h4|/V	|Ewe h5|/V	|Ewe h6|/V	|Ewe h7|/V	THD I/%	NSD I/%	NSR I/%	|I h2|/A	|I h3|/A	|I h4|/A	|I h5|/A	|I h6|/A	|I h7|/A	Re(Y)/Ohm-1	Im(Y)/Ohm-1	|Y|/Ohm-1	Phase(Y)/deg	Re(C)/nF	Im(C)/nF	|C|/nF	Phase(C)/deg	Re(M)	Im(M)	|M|	Phase(M)/deg	Re(Permittivity)	Im(Permittivity)	|Permittivity|	Phase(Permittivity)/deg	Re(Resistivity)/Ohm.cm	Im(Resistivity)/Ohm.cm	|Resistivity|/Ohm.cm	Phase(Resistivity)/deg	Re(Conductivity)/mS/cm	Im(Conductivity)/mS/cm	|Conductivity|/mS/cm	Phase(Conductivity)/deg	Tan(Delta)	Loss Angle(Delta)/deg	dq/mA.h
399996	3.25252	1.45582	3.56347	-24.1133	203.067	0.458304	-0.0107716	0.27331	0.0456171	1	38	0.00450438	0.00126405	0	5.28823e-06	-1	-1	-1	0	0	0	0	0	0	-1	-1	-1	0	0	0	0	0	0	0.256138	0.114647	0.280626	24.1133	45.6171	101.915	111.658	-65.8867	0.0000000E+000	0.0000000E+000	0.0000000E+000	65.8867	0.0000000E+000	0.0000000E+000	0.0000000E+000	-65.8867	0.0000000E+000	0.0000000E+000	0.0000000E+000	-24.1133	0.0000000E+000	0.0000000E+000	0.0000000E+000	24.1133	2.23414	65.8867	5.28823e-06
20032.3	3.59744	0.791219	3.68342	-12.4041	218.424	0.458276	-0.0287389	10.0414	0.463323	1	37	0.00512214	0.00139059	0	-7.87042e-05	1.29119	0.926264	29.9332	2.7421e-05	2.97043e-05	1.99251e-05	2.42483e-05	2.07716e-05	3.01926e-05	0.637039	0.349605	12.8973	3.3876e-06	3.30244e-06	4.25625e-06	2.3764e-06	4.71934e-06	1.78794e-06	0.26515	0.0583169	0.271487	12.4041	463.323	2106.59	2156.94	-77.5959	0.0000000E+000	0.0000000E+000	0.0000000E+000	77.5959	0.0000000E+000	0.0000000E+000	0.0000000E+000	-77.5959	0.0000000E+000	0.0000000E+000	0.0000000E+000	-12.4041	0.0000000E+000	0.0000000E+000	0.0000000E+000	12.4041	4.5467	77.5959	-9.08877e-06
1002.75	5.81907	7.11462	9.19127	-50.7202	233.405	0.458194	-0.0027541	22.3088	13.3668	1	38	0.00510566	0.000555491	0	-0.000124908	1.48092	0.978141	28.9587	2.53438e-05	2.66457e-05	2.86862e-05	2.26876e-05	3.91283e-05	3.29099e-05	0.553976	0.192636	5.86504	1.89935e-06	9.13331e-07	6.8988e-07	9.23323e-07	1.44826e-06	7.48387e-07	0.0688815	0.0842172	0.108799	50.7202	13366.8	10932.8	17268.4	-39.2798	0.0000000E+000	0.0000000E+000	0.0000000E+000	39.2798	0.0000000E+000	0.0000000E+000	0.0000000E+000	-39.2798	0.0000000E+000	0.0000000E+000	0.0000000E+000	-50.7202	0.0000000E+000	0.0000000E+000	0.0000000E+000	50.7202	0.817903	39.2798	-5.07149e-07
50.2089	42.4688	26.7029	50.1661	-32.1603	247.944	0.458177	0.000397146	118.708	33.6339	1	39	0.00493783	9.84296e-05	0	-0.000123639	1.73856	1.101	30.05	3.09491e-05	2.99007e-05	4.08617e-05	2.66062e-05	3.972e-05	2.65288e-05	0.913017	0.504194	15.6269	4.78638e-07	3.60143e-07	2.15229e-07	1.87474e-07	4.51786e-07	3.2603e-07	0.0168752	0.0106105	0.0199338	32.1603	33633.9	53491.9	63187.2	-57.8397	0.0000000E+000	0.0000000E+000	0.0000000E+000	57.8397	0.0000000E+000	0.0000000E+000	0.0000000E+000	-57.8397	0.0000000E+000	0.0000000E+000	0.0000000E+000	-32.1603	0.0000000E+000	0.0000000E+000	0.0000000E+000	32.1603	1.59042	57.8397	1.6842e-07
2.51368	101.111	52.1966	113.789	-27.3041	267.141	0.458157	0.000567876	1213.02	255.241	1	40	0.00490031	4.30648e-05	0	-0.000121273	0.984808	0.452131	19.3018	1.78874e-05	2.0351e-05	1.4025e-05	2.10358e-05	2.20171e-05	1.33878e-05	0.386112	0.279662	2.81113	1.33733e-07	4.89394e-08	3.25723e-08	5.38237e-08	4.20772e-08	1.99354e-08	0.00780904	0.00403126	0.00878818	27.3041	255241	494434	556429	-62.6959	0.0000000E+000	0.0000000E+000	0.0000000E+000	62.6959	0.0000000E+000	0.0000000E+000	0.0000000E+000	-62.6959	0.0000000E+000	0.0000000E+000	0.0000000E+000	-27.3041	0.0000000E+000	0.0000000E+000	0.0000000E+000	27.3041	1.93712	62.6959	3.80466e-07
0.125939	311.765	95.118	325.952	-16.9667	497.943	0.458162	0.000858132	13286.1	1131.4	1	41	0.00490939	1.50617e-05	0	-7.02439e-05	0.317091	0.182511	5.94029	6.60331e-06	6.2834e-06	3.67312e-06	5.35903e-06	6.14173e-06	7.03933e-06	0.290818	0.139854	0.848718	3.57517e-08	7.72314e-09	6.00308e-09	2.2179e-08	3.06865e-09	3.50757e-09	0.0029344	0.000895271	0.00306793	16.9667	1.1314e+06	3.70835e+06	3.8771e+06	-73.0333	0.0000000E+000	0.0000000E+000	0.0000000E+000	73.0333	0.0000000E+000	0.0000000E+000	0.0000000E+000	-73.0333	0.0000000E+000	0.0000000E+000	0.0000000E+000	-16.9667	0.0000000E+000	0.0000000E+000	0.0000000E+000	16.9667	3.27767	73.0333	9.58488e-06
31751	3.45311	0.672153	3.51792	-11.0149	575.14	0.458302	-0.0204941	7.45752	0.272243	2	37	0.00517726	0.00147168	0	-0.000109316	1.69422	0.988089	30.7465	2.38075e-05	2.81115e-05	3.65527e-05	3.51328e-05	2.83296e-05	4.00523e-05	0.756222	0.347922	12.1031	6.68412e-06	2.28719e-06	4.2684e-06	2.378e-06	4.90626e-06	3.51362e-06	0.279022	0.0543119	0.284259	11.0149	272.243	1398.62	1424.87	-78.9851	0.0000000E+000	0.0000000E+000	0.0000000E+000	78.9851	0.0000000E+000	0.0000000E+000	0.0000000E+000	-78.9851	0.0000000E+000	0.0000000E+000	0.0000000E+000	-11.0149	0.0000000E+000	0.0000000E+000	0.0000000E+000	11.0149	5.1374	78.9851	-4.13003e-06
1589.49	4.89162	5.09629	7.064	-46.1739	590.79	0.458157	-0.000707827	19.6475	10.2262	2	38	0.00529809	0.000750012	0	-0.000136803	1.43349	0.979702	28.2427	3.31014e-05	3.17505e-05	1.4328e-05	3.05169e-05	3.3086e-05	2.86076e-05	0.39889	0.163047	4.43058	2.18679e-06	9.99877e-07	8.05916e-07	5.80441e-07	8.64521e-07	8.37571e-07	0.0980283	0.10213	0.141563	46.1739	10226.2	9815.52	14174.6	-43.8261	0.0000000E+000	0.0000000E+000	0.0000000E+000	43.8261	0.0000000E+000	0.0000000E+000	0.0000000E+000	-43.8261	0.0000000E+000	0.0000000E+000	0.0000000E+000	-46.1739	0.0000000E+000	0.0000000E+000	0.0000000E+000	46.1739	0.959841	43.8261	-3.34152e-07
[...]
2519.19	4.39741	3.57462	5.66702	-39.1074	947.227	0.458145	0.000251079	17.6738	7.03201	3	38	0.00545345	0.000962314	0	-3.4262e-05	1.40745	0.914156	28.0583	3.24353e-05	3.53917e-05	2.11183e-05	3.21788e-05	3.02504e-05	2.62177e-05	0.274296	0.257526	3.41185	1.94152e-06	8.47396e-07	6.12762e-07	9.96817e-07	4.06654e-07	6.26143e-07	0.136926	0.111306	0.17646	39.1074	7032.01	8650.61	11148.2	-50.8926	0.0000000E+000	0.0000000E+000	0.0000000E+000	50.8926	0.0000000E+000	0.0000000E+000	0.0000000E+000	-50.8926	0.0000000E+000	0.0000000E+000	0.0000000E+000	-39.1074	0.0000000E+000	0.0000000E+000	0.0000000E+000	39.1074	1.23018	50.8926	8.97708e-07
126.171	28.959	30.5424	42.0887	-46.5243	961.857	0.458161	0.0014843	41.3007	21.7486	3	39	0.0049484	0.000117571	0	-2.82202e-05	1.45477	1.11957	29.4742	2.02154e-05	3.11273e-05	2.20959e-05	3.48175e-05	3.15741e-05	2.00055e-05	0.658537	0.495426	13.129	4.67006e-07	2.66249e-07	2.62887e-07	3.42942e-07	1.65691e-07	1.68719e-07	0.0163475	0.0172413	0.0237593	46.5243	21748.6	20621.1	29970.5	-43.4757	0.0000000E+000	0.0000000E+000	0.0000000E+000	43.4757	0.0000000E+000	0.0000000E+000	0.0000000E+000	-43.4757	0.0000000E+000	0.0000000E+000	0.0000000E+000	-46.5243	0.0000000E+000	0.0000000E+000	0.0000000E+000	46.5243	0.948159	43.4757	3.02851e-07
6.31569	98.9053	43.6297	108.101	-23.8035	976.662	0.458155	0.00132836	577.587	94.0855	3	40	0.00493389	4.56415e-05	0	-2.31928e-05	1.88148	1.05906	34.7405	2.72947e-05	3.41208e-05	3.30168e-05	3.77032e-05	2.8415e-05	4.73779e-05	0.443668	0.127944	4.68577	1.59088e-07	4.92468e-08	3.13292e-08	7.41333e-08	4.17485e-08	3.72582e-08	0.00846371	0.00373356	0.00925061	23.8035	94085.5	213285	233115	-66.1965	0.0000000E+000	0.0000000E+000	0.0000000E+000	66.1965	0.0000000E+000	0.0000000E+000	0.0000000E+000	-66.1965	0.0000000E+000	0.0000000E+000	0.0000000E+000	-23.8035	0.0000000E+000	0.0000000E+000	0.0000000E+000	23.8035	2.26693	66.1965	6.25665e-07
0.316193	239.105	114.482	265.099	-25.5848	1072.41	0.458198	0.00138281	4396.74	819.954	3	41	0.00490775	1.85129e-05	0	1.45742e-05	0.543809	0.254243	9.60126	7.88556e-06	7.1689e-06	9.21599e-06	1.09064e-05	1.54309e-05	7.83584e-06	0.359827	0.14657	0.832173	5.89027e-08	1.4e-08	9.27702e-09	1.88479e-08	7.20238e-09	7.65528e-09	0.00340231	0.001629	0.00377218	25.5848	819954	1.71254e+06	1.89872e+06	-64.4152	0.0000000E+000	0.0000000E+000	0.0000000E+000	64.4152	0.0000000E+000	0.0000000E+000	0.0000000E+000	-64.4152	0.0000000E+000	0.0000000E+000	0.0000000E+000	-25.5848	0.0000000E+000	0.0000000E+000	0.0000000E+000	25.5848	2.08858	64.4152	1.05729e-05
0.0999518	352.151	82.0804	361.59	-13.1204	1276.99	0.458199	0.00154368	19399.5	999.623	3	41	0.00491166	1.35835e-05	0	9.43988e-05	0.272525	0.258524	5.94133	4.85859e-06	4.87769e-06	5.45148e-06	7.99416e-06	2.49583e-06	3.88114e-06	0.276412	0.0885947	0.819138	3.23393e-08	6.39777e-09	3.33274e-09	1.57986e-08	3.63292e-09	5.31881e-09	0.00269337	0.000627779	0.00276556	13.1204	999623	4.2887e+06	4.40366e+06	-76.8796	0.0000000E+000	0.0000000E+000	0.0000000E+000	76.8796	0.0000000E+000	0.0000000E+000	0.0000000E+000	-76.8796	0.0000000E+000	0.0000000E+000	0.0000000E+000	-13.1204	0.0000000E+000	0.0000000E+000	0.0000000E+000	13.1204	4.29031	76.8796	2.86484e-05