Folder: Thesis/Python/Data/GoldElectrode/240319/Gold (part 3)

File: 240319-CVEIS_Activation-0p5H2SO4-Ag_AgCl_BLF8-Au_RDE-80cycles_08_PEIS_C15.mpt
EC-Lab ASCII FILE
Nb header lines : 66

Potentio Electrochemical Impedance Spectroscopy

Run on channel : 15 (SN 19485)
User :
Electrode connection : standard
Potential control : Ewe
Ewe ctrl range : min = -2.50 V, max = 2.50 V
Ewe,I filtering : 50 kHz
Safety Limits :
	Do not start on E overload
Channel : Floating
Acquisition started on : 03/19/2024 13:27:19.036
Loaded Setting File :  C:\Data\mathias\GoldElectrode\240313-CVEIS_Activation-0p5H2SO4-Ag_AgCl_BLF8-Au_RDE-80cycles.mps
Saved on :
	File : 240319-CVEIS_Activation-0p5H2SO4-Ag_AgCl_BLF8-Au_RDE-80cycles_08_PEIS_C15.mpr
	Directory : C:\Data\mathias\GoldElectrode\
	Host : 192.168.0.1
Device : VMP-300 (SN 0826)
Address : USB
EC-Lab for windows v11.52 (software)
Internet server v11.52 (firmware)
Command interpretor v11.52 (firmware)
Electrode material :
Initial state :
Electrolyte :
Comments :
Cable : special
Electrode surface area : 0.001 cm²
Characteristic mass : 0.001 g
Equivalent Weight : 0.000 g/eq.
Density : 0.000 g/cm3
Volume (V) : 0.001 cm³
Record EIS quality indicators
Cycle Definition : Charge/Discharge alternance
Mode                Single sine
E (V)               0.0000
vs.                 Eoc
tE (h:m:s)          0:00:0.0000
record              0
dI                  0.000
unit dI             mA
dt (s)              0.000
fi                  100.000
unit fi             kHz
ff                  100.000
unit ff             Hz
Nd                  10
Points              per decade
spacing             Logarithmic
Va (mV)             5.0
pw                  0.10
Na                  2
corr                0
E range min (V)     -2.500
E range max (V)     2.500
I Range             Auto
Bandwidth           8
nc cycles           0
goto Ns'            0
nr cycles           0
inc. cycle          0

freq/Hz	Re(Z)/Ohm	-Im(Z)/Ohm	|Z|/Ohm	Phase(Z)/deg	time/s	<Ewe>/V	<I>/mA	Cs/µF	Cp/µF	cycle number	I Range	|Ewe|/V	|I|/A	Ns	(Q-Qo)/mA.h	THD Ewe/%	NSD Ewe/%	NSR Ewe/%	|Ewe h2|/V	|Ewe h3|/V	|Ewe h4|/V	|Ewe h5|/V	|Ewe h6|/V	|Ewe h7|/V	THD I/%	NSD I/%	NSR I/%	|I h2|/A	|I h3|/A	|I h4|/A	|I h5|/A	|I h6|/A	|I h7|/A	Re(Y)/Ohm-1	Im(Y)/Ohm-1	|Y|/Ohm-1	Phase(Y)/deg	Re(C)/nF	Im(C)/nF	|C|/nF	Phase(C)/deg	Re(M)	Im(M)	|M|	Phase(M)/deg	Re(Permittivity)	Im(Permittivity)	|Permittivity|	Phase(Permittivity)/deg	Re(Resistivity)/Ohm.cm	Im(Resistivity)/Ohm.cm	|Resistivity|/Ohm.cm	Phase(Resistivity)/deg	Re(Conductivity)/mS/cm	Im(Conductivity)/mS/cm	|Conductivity|/mS/cm	Phase(Conductivity)/deg	Tan(Delta)	Loss Angle(Delta)/deg	dq/mA.h
100004	7.47863	0.648812	7.50672	-4.95831	1162.34	0.630993	-0.0208819	2.45293	0.0183241	1	38	0.00481675	0.000641659	0	-5.72502e-06	4.67562	0.984771	79.3048	6.9072e-05	6.60669e-05	8.74465e-05	6.67024e-05	0.000150389	7.58442e-05	0.304864	0.129793	6.01669	5.62582e-07	5.62603e-07	9.56584e-07	6.51964e-07	1.31398e-06	1.6483e-07	0.132715	0.0115138	0.133214	4.95831	18.3241	211.215	212.009	-85.0417	0.0000000E+000	0.0000000E+000	0.0000000E+000	85.0417	0.0000000E+000	0.0000000E+000	0.0000000E+000	-85.0417	0.0000000E+000	0.0000000E+000	0.0000000E+000	-4.95831	0.0000000E+000	0.0000000E+000	0.0000000E+000	4.95831	11.5267	85.0417	-5.72502e-06
63093.8	7.74222	0.590089	7.76468	-4.35849	1163.97	0.631026	-0.01028	4.2748	0.024689	1	38	0.00522239	0.000672583	0	-1.1201e-05	4.01122	2.70446	72.6023	4.60395e-05	5.57511e-05	5.85067e-05	0.000158517	8.11245e-05	3.64071e-05	0.326231	0.224642	5.67646	1.3223e-06	1.19776e-06	6.23782e-07	3.63262e-07	4.44523e-07	8.50686e-07	0.128416	0.00978748	0.128788	4.35849	24.689	323.931	324.87	-85.6415	0.0000000E+000	0.0000000E+000	0.0000000E+000	85.6415	0.0000000E+000	0.0000000E+000	0.0000000E+000	-85.6415	0.0000000E+000	0.0000000E+000	0.0000000E+000	-4.35849	0.0000000E+000	0.0000000E+000	0.0000000E+000	4.35849	13.1204	85.6415	-3.01349e-06
39814.1	7.72953	0.678928	7.75929	-5.01973	1165.59	0.631049	-0.010874	5.88789	0.0450779	1	38	0.00520949	0.000671388	0	-1.71591e-05	6.70748	1.68554	72.8689	0.000288147	6.52704e-05	5.66816e-05	0.000112401	9.97313e-05	4.59629e-05	0.566758	0.105682	5.54187	2.50131e-06	1.28536e-06	1.53048e-06	3.96408e-07	9.08848e-07	8.17445e-07	0.128384	0.0112767	0.128878	5.01973	45.0779	513.207	515.183	-84.9803	0.0000000E+000	0.0000000E+000	0.0000000E+000	84.9803	0.0000000E+000	0.0000000E+000	0.0000000E+000	-84.9803	0.0000000E+000	0.0000000E+000	0.0000000E+000	-5.01973	0.0000000E+000	0.0000000E+000	0.0000000E+000	5.01973	11.3849	84.9803	-3.64102e-06
25116.9	7.69539	0.956661	7.75463	-7.08643	1167.22	0.631089	-0.0107995	6.62363	0.100807	1	38	0.00514575	0.000663571	0	-2.34069e-05	4.3976	2.17122	74.3728	0.000120167	7.85334e-05	6.67834e-05	8.29746e-05	5.55624e-05	9.61562e-05	0.389662	0.199491	5.71034	1.48973e-06	9.65679e-07	1.29546e-06	3.86137e-07	9.82938e-07	7.20777e-07	0.12797	0.0159088	0.128955	7.08643	100.807	810.891	817.133	-82.9136	0.0000000E+000	0.0000000E+000	0.0000000E+000	82.9136	0.0000000E+000	0.0000000E+000	0.0000000E+000	-82.9136	0.0000000E+000	0.0000000E+000	0.0000000E+000	-7.08643	0.0000000E+000	0.0000000E+000	0.0000000E+000	7.08643	8.04401	82.9136	-3.5731e-06
15847.7	8.01377	1.31184	8.12043	-9.29673	1168.85	0.630984	-0.0094012	7.65552	0.199791	1	38	0.00526884	0.000648837	0	-2.94059e-05	2.85387	1.91516	71.6196	4.8951e-05	4.65268e-05	5.56391e-05	5.70959e-05	7.92782e-05	7.10664e-05	0.294725	0.194151	5.9759	8.82942e-07	1.07013e-06	5.70157e-07	8.15202e-07	5.69056e-07	4.24786e-07	0.121529	0.019894	0.123146	9.29673	199.791	1220.49	1236.73	-80.7033	0.0000000E+000	0.0000000E+000	0.0000000E+000	80.7033	0.0000000E+000	0.0000000E+000	0.0000000E+000	-80.7033	0.0000000E+000	0.0000000E+000	0.0000000E+000	-9.29673	0.0000000E+000	0.0000000E+000	0.0000000E+000	9.29673	6.10882	80.7033	-3.16926e-06
10002.2	7.97276	1.94715	8.20709	-13.7244	1170.48	0.631029	-0.00997468	8.17192	0.459986	1	38	0.00514567	0.000626979	0	-3.3155e-05	2.8308	2.28287	73.6594	6.04138e-05	5.52462e-05	1.63041e-05	7.81375e-05	6.01854e-05	3.85987e-05	0.263582	0.0624984	6.04529	5.15176e-07	7.58114e-07	2.99889e-07	1.03981e-06	2.86833e-07	7.65411e-07	0.118367	0.0289082	0.121846	13.7244	459.986	1883.45	1938.81	-76.2756	0.0000000E+000	0.0000000E+000	0.0000000E+000	76.2756	0.0000000E+000	0.0000000E+000	0.0000000E+000	-76.2756	0.0000000E+000	0.0000000E+000	0.0000000E+000	-13.7244	0.0000000E+000	0.0000000E+000	0.0000000E+000	13.7244	4.09458	76.2756	-9.2671e-07
6307.74	8.18413	2.77479	8.64173	-18.729	1172.23	0.630891	-0.00931555	9.09319	0.93751	1	38	0.00495742	0.00057366	0	-3.71011e-05	8.14841	2.66403	75.1694	6.46914e-05	0.00010141	8.02502e-05	0.000364399	8.25623e-05	2.37232e-05	0.555721	0.286817	6.51267	7.38608e-07	1.03437e-06	8.83948e-07	2.59819e-06	5.55138e-07	6.2804e-07	0.10959	0.037156	0.115718	18.729	937.51	2765.15	2919.75	-71.271	0.0000000E+000	0.0000000E+000	0.0000000E+000	71.271	0.0000000E+000	0.0000000E+000	0.0000000E+000	-71.271	0.0000000E+000	0.0000000E+000	0.0000000E+000	-18.729	0.0000000E+000	0.0000000E+000	0.0000000E+000	18.729	2.94946	71.271	-1.88345e-06
[...]
631.01	11.5321	22.6443	25.4117	-63.0117	1179.89	0.630924	-0.00666231	11.1384	8.84456	1	38	0.00506731	0.000199409	0	-5.46171e-05	4.4623	3.22623	76.6335	5.65735e-05	4.50901e-05	0.000137001	0.00010362	6.71068e-05	9.60061e-05	1.41765	0.485209	19.6121	8.79569e-07	4.51834e-07	2.20039e-06	1.16853e-06	7.24735e-07	2.53867e-07	0.0178583	0.0350665	0.0393519	63.0117	8844.56	4504.26	9925.45	-26.9883	0.0000000E+000	0.0000000E+000	0.0000000E+000	26.9883	0.0000000E+000	0.0000000E+000	0.0000000E+000	-26.9883	0.0000000E+000	0.0000000E+000	0.0000000E+000	-63.0117	0.0000000E+000	0.0000000E+000	0.0000000E+000	63.0117	0.509269	26.9883	-1.30648e-06
398.089	13.8735	33.7564	36.4962	-67.6579	1181.63	0.630886	-0.000756541	11.8436	10.1322	1	39	0.00514088	0.000140861	0	-5.50451e-05	6.19219	3.38766	72.3913	0.000127411	0.000145566	8.62413e-05	0.000117989	0.000131481	0.000128785	1.05543	0.437322	12.1946	1.04002e-06	4.60326e-07	3.97995e-07	5.65162e-07	5.49039e-07	3.50877e-07	0.0104158	0.0253432	0.0274001	67.6579	10132.2	4164.2	10954.5	-22.3421	0.0000000E+000	0.0000000E+000	0.0000000E+000	22.3421	0.0000000E+000	0.0000000E+000	0.0000000E+000	-22.3421	0.0000000E+000	0.0000000E+000	0.0000000E+000	-67.6579	0.0000000E+000	0.0000000E+000	0.0000000E+000	67.6579	0.410988	22.3421	-9.96707e-08
251.206	17.3544	50.7349	53.6209	-71.1162	1183.12	0.630937	-0.000316687	12.4877	11.1797	1	39	0.00501329	9.34952e-05	0	-5.52498e-05	3.75871	2.06185	74.1346	0.000103423	6.90935e-05	2.70282e-05	7.61395e-05	9.37374e-05	5.55505e-05	1.09412	0.478546	17.7726	3.96183e-07	2.3739e-07	3.05094e-07	1.79042e-07	6.98669e-07	2.6038e-07	0.00603589	0.0176457	0.0186494	71.1162	11179.7	3824.12	11815.6	-18.8838	0.0000000E+000	0.0000000E+000	0.0000000E+000	18.8838	0.0000000E+000	0.0000000E+000	0.0000000E+000	-18.8838	0.0000000E+000	0.0000000E+000	0.0000000E+000	-71.1162	0.0000000E+000	0.0000000E+000	0.0000000E+000	71.1162	0.342061	18.8838	5.4667e-09
158.529	22.6247	75.1996	78.5294	-73.2554	1184.61	0.630939	-0.000372974	13.3504	12.2423	1	39	0.00493554	6.28496e-05	0	-5.55951e-05	3.2953	2.05468	74.6798	4.51428e-05	6.3638e-05	4.4975e-05	8.40836e-05	7.36042e-05	5.53572e-05	1.69295	0.695709	27.6937	4.37627e-07	4.32587e-07	4.28196e-07	3.18344e-07	1.99492e-07	4.38517e-07	0.00366876	0.0121941	0.0127341	73.2554	12242.3	3683.25	12784.4	-16.7446	0.0000000E+000	0.0000000E+000	0.0000000E+000	16.7446	0.0000000E+000	0.0000000E+000	0.0000000E+000	-16.7446	0.0000000E+000	0.0000000E+000	0.0000000E+000	-73.2554	0.0000000E+000	0.0000000E+000	0.0000000E+000	73.2554	0.300862	16.7446	-1.2672e-07
99.9682	30.0784	112.858	116.798	-75.0768	1186.08	0.631049	-0.000441003	14.1067	13.1711	1	39	0.00497957	4.2634e-05	0	-5.56433e-05	5.23655	6.5746	76.1701	0.000121303	7.08159e-05	4.59858e-05	9.33898e-05	8.91804e-05	0.000156626	2.02856	1.57871	39.3211	2.32038e-07	5.15955e-07	2.26664e-07	1.49863e-07	4.64037e-07	2.98777e-07	0.00220488	0.00827302	0.0085618	75.0768	13171.1	3510.29	13630.9	-14.9232	0.0000000E+000	0.0000000E+000	0.0000000E+000	14.9232	0.0000000E+000	0.0000000E+000	0.0000000E+000	-14.9232	0.0000000E+000	0.0000000E+000	0.0000000E+000	-75.0768	0.0000000E+000	0.0000000E+000	0.0000000E+000	75.0768	0.266514	14.9232	-4.08003e-08

File: 240319-CVEIS_Activation-0p5H2SO4-Ag_AgCl_BLF8-Au_RDE-80cycles_10_PEIS_C15.mpt
EC-Lab ASCII FILE
Nb header lines : 66

Potentio Electrochemical Impedance Spectroscopy

Run on channel : 15 (SN 19485)
User :
Electrode connection : standard
Potential control : Ewe
Ewe ctrl range : min = -2.50 V, max = 2.50 V
Ewe,I filtering : 50 kHz
Safety Limits :
	Do not start on E overload
Channel : Floating
Acquisition started on : 03/19/2024 13:27:19.036
Loaded Setting File :  C:\Data\mathias\GoldElectrode\240313-CVEIS_Activation-0p5H2SO4-Ag_AgCl_BLF8-Au_RDE-80cycles.mps
Saved on :
	File : 240319-CVEIS_Activation-0p5H2SO4-Ag_AgCl_BLF8-Au_RDE-80cycles_10_PEIS_C15.mpr
	Directory : C:\Data\mathias\GoldElectrode\
	Host : 192.168.0.1
Device : VMP-300 (SN 0826)
Address : USB
EC-Lab for windows v11.52 (software)
Internet server v11.52 (firmware)
Command interpretor v11.52 (firmware)
Electrode material :
Initial state :
Electrolyte :
Comments :
Cable : special
Electrode surface area : 0.001 cm²
Characteristic mass : 0.001 g
Equivalent Weight : 0.000 g/eq.
Density : 0.000 g/cm3
Volume (V) : 0.001 cm³
Record EIS quality indicators
Cycle Definition : Charge/Discharge alternance
Mode                Single sine
E (V)               0.0000
vs.                 Eoc
tE (h:m:s)          0:00:0.0000
record              0
dI                  0.000
unit dI             mA
dt (s)              0.000
fi                  100.000
unit fi             kHz
ff                  100.000
unit ff             Hz
Nd                  10
Points              per decade
spacing             Logarithmic
Va (mV)             5.0
pw                  0.10
Na                  2
corr                0
E range min (V)     -2.500
E range max (V)     2.500
I Range             Auto
Bandwidth           8
nc cycles           0
goto Ns'            0
nr cycles           0
inc. cycle          0

freq/Hz	Re(Z)/Ohm	-Im(Z)/Ohm	|Z|/Ohm	Phase(Z)/deg	time/s	<Ewe>/V	<I>/mA	Cs/µF	Cp/µF	cycle number	I Range	|Ewe|/V	|I|/A	Ns	(Q-Qo)/mA.h	THD Ewe/%	NSD Ewe/%	NSR Ewe/%	|Ewe h2|/V	|Ewe h3|/V	|Ewe h4|/V	|Ewe h5|/V	|Ewe h6|/V	|Ewe h7|/V	THD I/%	NSD I/%	NSR I/%	|I h2|/A	|I h3|/A	|I h4|/A	|I h5|/A	|I h6|/A	|I h7|/A	Re(Y)/Ohm-1	Im(Y)/Ohm-1	|Y|/Ohm-1	Phase(Y)/deg	Re(C)/nF	Im(C)/nF	|C|/nF	Phase(C)/deg	Re(M)	Im(M)	|M|	Phase(M)/deg	Re(Permittivity)	Im(Permittivity)	|Permittivity|	Phase(Permittivity)/deg	Re(Resistivity)/Ohm.cm	Im(Resistivity)/Ohm.cm	|Resistivity|/Ohm.cm	Phase(Resistivity)/deg	Re(Conductivity)/mS/cm	Im(Conductivity)/mS/cm	|Conductivity|/mS/cm	Phase(Conductivity)/deg	Tan(Delta)	Loss Angle(Delta)/deg	dq/mA.h
100004	7.56299	0.655574	7.59135	-4.95412	1549.07	0.631028	-0.0178824	2.42763	0.0181045	1	38	0.00487074	0.000641616	0	-4.78909e-06	3.67998	2.06126	80.2099	1.36489e-05	4.8922e-05	0.000103101	8.29717e-05	9.60032e-05	2.95573e-05	0.277932	0.181332	6.02753	9.0153e-07	8.43245e-07	5.57305e-07	5.06227e-07	5.90787e-07	6.65405e-07	0.131237	0.0113758	0.131729	4.95412	18.1045	208.862	209.645	-85.0459	0.0000000E+000	0.0000000E+000	0.0000000E+000	85.0459	0.0000000E+000	0.0000000E+000	0.0000000E+000	-85.0459	0.0000000E+000	0.0000000E+000	0.0000000E+000	-4.95412	0.0000000E+000	0.0000000E+000	0.0000000E+000	4.95412	11.5365	85.0459	-4.78909e-06
63093.8	7.49028	0.671815	7.52035	-5.12523	1550.7	0.631042	-0.00995047	3.75477	0.0299645	1	38	0.00519713	0.000691075	0	-8.71121e-06	3.00361	2.23295	74.9028	4.06859e-05	9.1794e-05	5.80096e-05	7.16174e-05	2.80724e-05	4.2145e-05	0.205885	0.135274	5.51997	6.90823e-07	6.40563e-07	3.78164e-07	4.43897e-07	7.41775e-07	2.83795e-07	0.132441	0.0118788	0.132973	5.12523	29.9645	334.084	335.425	-84.8748	0.0000000E+000	0.0000000E+000	0.0000000E+000	84.8748	0.0000000E+000	0.0000000E+000	0.0000000E+000	-84.8748	0.0000000E+000	0.0000000E+000	0.0000000E+000	-5.12523	0.0000000E+000	0.0000000E+000	0.0000000E+000	5.12523	11.1493	84.8748	-1.29711e-06
39814.1	7.60478	0.677149	7.63487	-5.08834	1552.32	0.631021	-0.0105128	5.90336	0.046437	1	38	0.00516561	0.000676581	0	-1.32961e-05	3.44808	2.2803	74.8298	5.64881e-05	6.96162e-05	5.66124e-05	5.08544e-05	7.72675e-05	9.3923e-05	0.35544	0.235578	5.70891	7.7611e-07	1.07757e-06	2.61055e-07	1.21594e-06	8.58084e-07	1.13707e-06	0.130462	0.0116167	0.130978	5.08834	46.437	521.515	523.579	-84.9117	0.0000000E+000	0.0000000E+000	0.0000000E+000	84.9117	0.0000000E+000	0.0000000E+000	0.0000000E+000	-84.9117	0.0000000E+000	0.0000000E+000	0.0000000E+000	-5.08834	0.0000000E+000	0.0000000E+000	0.0000000E+000	5.08834	11.2306	84.9117	-2.1839e-06
25116.9	7.69058	1.07306	7.76508	-7.94314	1553.95	0.63107	-0.00838645	5.90514	0.112768	1	38	0.00515352	0.000663679	0	-1.76111e-05	4.78813	2.21154	74.5892	0.000139186	9.6431e-05	5.14201e-05	0.000118983	6.65884e-05	8.29346e-05	0.353511	0.181023	5.75464	1.26133e-06	1.2327e-06	4.74564e-07	1.22574e-06	4.43427e-07	5.56767e-07	0.127546	0.0177964	0.128782	7.94314	112.768	808.204	816.033	-82.0569	0.0000000E+000	0.0000000E+000	0.0000000E+000	82.0569	0.0000000E+000	0.0000000E+000	0.0000000E+000	-82.0569	0.0000000E+000	0.0000000E+000	0.0000000E+000	-7.94314	0.0000000E+000	0.0000000E+000	0.0000000E+000	7.94314	7.16697	82.0569	-1.64175e-06
15847.7	7.84539	1.34103	7.95917	-9.69998	1555.58	0.630983	-0.00880166	7.48884	0.212597	1	38	0.00508767	0.000639221	0	-2.23706e-05	4.16856	2.06414	75.3586	9.31258e-05	4.34235e-05	6.82236e-05	6.72893e-05	0.000109165	9.48724e-05	0.353117	0.102039	6.07707	1.07495e-06	9.87974e-07	6.0739e-07	1.05694e-06	5.72759e-07	8.59631e-07	0.123845	0.0211692	0.125641	9.69998	212.597	1243.75	1261.79	-80.3	0.0000000E+000	0.0000000E+000	0.0000000E+000	80.3	0.0000000E+000	0.0000000E+000	0.0000000E+000	-80.3	0.0000000E+000	0.0000000E+000	0.0000000E+000	-9.69998	0.0000000E+000	0.0000000E+000	0.0000000E+000	9.69998	5.85025	80.3	-1.22989e-06
10002.2	8.00387	1.87245	8.21997	-13.1672	1557.21	0.631025	-0.00797868	8.49793	0.440954	1	38	0.00515647	0.00062731	0	-2.73117e-05	2.72571	1.85341	76.5015	3.99546e-05	5.85752e-05	4.48192e-05	3.03179e-05	8.67313e-05	5.33179e-05	0.277782	0.239132	6.23036	4.68606e-07	3.48873e-07	6.36635e-07	8.03385e-07	6.78494e-07	8.33521e-07	0.118457	0.0277121	0.121655	13.1672	440.954	1884.88	1935.77	-76.8328	0.0000000E+000	0.0000000E+000	0.0000000E+000	76.8328	0.0000000E+000	0.0000000E+000	0.0000000E+000	-76.8328	0.0000000E+000	0.0000000E+000	0.0000000E+000	-13.1672	0.0000000E+000	0.0000000E+000	0.0000000E+000	13.1672	4.27454	76.8328	-2.28059e-06
6307.74	8.06296	2.69356	8.50097	-18.4727	1558.96	0.63087	-0.00801965	9.36743	0.94045	1	38	0.00487566	0.000573541	0	-3.05501e-05	4.41227	8.16525	80.3163	3.44326e-05	0.000107217	7.71886e-05	0.000118858	6.57429e-05	8.15529e-05	0.443338	0.476959	6.67417	8.65995e-07	8.07847e-07	6.94642e-07	1.61647e-06	8.83785e-07	7.63032e-07	0.111572	0.0372725	0.117634	18.4727	940.45	2815.16	2968.1	-71.5273	0.0000000E+000	0.0000000E+000	0.0000000E+000	71.5273	0.0000000E+000	0.0000000E+000	0.0000000E+000	-71.5273	0.0000000E+000	0.0000000E+000	0.0000000E+000	-18.4727	0.0000000E+000	0.0000000E+000	0.0000000E+000	18.4727	2.99342	71.5273	-1.73522e-06
[...]
631.01	11.6305	21.9334	24.8262	-62.0647	1566.62	0.630913	-0.00658411	11.4995	8.97571	1	38	0.00501582	0.000202037	0	-4.46256e-05	6.01223	2.56307	78.746	9.74418e-05	7.35852e-05	0.000213922	5.72142e-05	6.1948e-05	0.000149007	1.03475	0.625029	18.9909	8.63014e-07	1.23804e-06	1.08609e-06	6.91018e-07	2.55173e-07	3.41281e-07	0.0188701	0.0355864	0.04028	62.0647	8975.71	4759.48	10159.5	-27.9353	0.0000000E+000	0.0000000E+000	0.0000000E+000	27.9353	0.0000000E+000	0.0000000E+000	0.0000000E+000	-27.9353	0.0000000E+000	0.0000000E+000	0.0000000E+000	-62.0647	0.0000000E+000	0.0000000E+000	0.0000000E+000	62.0647	0.530262	27.9353	-9.75705e-07
398.089	13.4909	33.1343	35.7755	-67.8459	1568.37	0.630851	-0.000484427	12.066	10.3501	1	39	0.00510298	0.000142639	0	-4.58496e-05	4.52692	3.74008	73.6915	6.41013e-05	0.000150146	3.90915e-05	6.52909e-05	6.82534e-05	0.000116749	0.898451	0.474918	12.1722	4.87073e-07	4.05801e-07	4.89157e-07	6.94204e-07	4.89598e-07	3.76414e-07	0.0105407	0.0258885	0.0279521	67.8459	10350.1	4214.14	11175.2	-22.1541	0.0000000E+000	0.0000000E+000	0.0000000E+000	22.1541	0.0000000E+000	0.0000000E+000	0.0000000E+000	-22.1541	0.0000000E+000	0.0000000E+000	0.0000000E+000	-67.8459	0.0000000E+000	0.0000000E+000	0.0000000E+000	67.8459	0.407157	22.1541	-4.22876e-07
251.206	17.3311	50.0848	52.9987	-70.9126	1569.85	0.630944	-0.000206723	12.6498	11.2971	1	39	0.00500612	9.44574e-05	0	-4.58711e-05	3.35132	1.37663	76.547	0.000106558	5.70235e-05	5.6494e-05	2.67511e-05	4.5934e-05	8.12323e-05	1.00486	0.531318	19.0065	6.0079e-07	2.25379e-07	2.90824e-07	5.88683e-07	1.07703e-07	1.98236e-07	0.00617016	0.017831	0.0188684	70.9126	11297.1	3909.19	11954.3	-19.0874	0.0000000E+000	0.0000000E+000	0.0000000E+000	19.0874	0.0000000E+000	0.0000000E+000	0.0000000E+000	-19.0874	0.0000000E+000	0.0000000E+000	0.0000000E+000	-70.9126	0.0000000E+000	0.0000000E+000	0.0000000E+000	70.9126	0.346035	19.0874	5.63563e-08
158.529	23.7491	74.1913	77.8998	-72.2498	1571.34	0.630873	-0.000337749	13.5319	12.2742	1	39	0.00492908	6.32746e-05	0	-4.6131e-05	3.64231	0.903896	75.719	5.69947e-05	6.81628e-05	1.35722e-05	9.37195e-05	3.94291e-05	0.000102613	1.81119	0.493812	28.6293	5.96514e-07	4.15327e-07	4.81446e-07	2.18354e-07	3.83963e-07	4.31019e-07	0.00391359	0.0122259	0.012837	72.2498	12274.2	3929.04	12887.7	-17.7502	0.0000000E+000	0.0000000E+000	0.0000000E+000	17.7502	0.0000000E+000	0.0000000E+000	0.0000000E+000	-17.7502	0.0000000E+000	0.0000000E+000	0.0000000E+000	-72.2498	0.0000000E+000	0.0000000E+000	0.0000000E+000	72.2498	0.320106	17.7502	-1.75409e-07
99.9682	31.3496	109.36	113.765	-74.0043	1572.82	0.63095	-0.000577246	14.5579	13.4525	1	39	0.00487124	4.28185e-05	0	-4.62303e-05	4.50922	4.62034	79.7162	8.79917e-05	7.96976e-05	0.000126166	8.70404e-05	6.3838e-05	5.07648e-05	2.70535	1.45971	42.9321	5.66294e-07	4.45055e-07	4.1837e-07	2.975e-07	2.33889e-07	5.59309e-07	0.00242224	0.00844975	0.00879008	74.0043	13452.5	3856.34	13994.3	-15.9957	0.0000000E+000	0.0000000E+000	0.0000000E+000	15.9957	0.0000000E+000	0.0000000E+000	0.0000000E+000	-15.9957	0.0000000E+000	0.0000000E+000	0.0000000E+000	-74.0043	0.0000000E+000	0.0000000E+000	0.0000000E+000	74.0043	0.286664	15.9957	-7.02835e-08