Folder: Thesis/Python/Experiments/IRFB/240507-Cloth-1p5M_FeCl2FeCl3-1M_HCl/Data (part 2)

File: 240507-EIS-Cloth-1p5M_FeCl2FeCl3-1M_HCl-Wamup_10mLmin-4xFlowRate-20mHz_10ppd_05_PEIS_C15.mpt
EC-Lab ASCII FILE
Nb header lines : 75

Potentio Electrochemical Impedance Spectroscopy

Run on channel : 15 (SN 19485)
User :
Electrode connection : standard
Potential control : Ewe
Ewe ctrl range : min = -1.00 V, max = 1.00 V
Ewe,I filtering : 50 kHz
Safety Limits :
	Do not start on E overload
Channel : Grounded
Acquisition started on : 05/08/2024 12:03:59.706
Loaded Setting File :  C:\Data\mathias\IRFB\240503-EIS-Felt-1p5M_FeCl2FeCl3-1M_HCl-Wamup_10mLmin-4xFlowRate-20mHz_10ppd.mps
Saved on :
	File : 240507-EIS-Cloth-1p5M_FeCl2FeCl3-1M_HCl-Wamup_10mLmin-4xFlowRate-20mHz_10ppd_05_PEIS_C15.mpr
	Directory : C:\Data\mathias\IRFB\
	Host : 192.168.0.1
Device : VMP-300 (SN 0826)
Address : USB
EC-Lab for windows v11.52 (software)
Internet server v11.52 (firmware)
Command interpretor v11.52 (firmware)
Electrode material :
Initial state :
Electrolyte :
Comments :
Cable : special
Electrode surface area : 0.001 cm²
Characteristic mass : 0.001 g
Equivalent Weight : 0.000 g/eq.
Density : 0.000 g/cm3
Volume (V) : 0.001 cm³
Record EIS quality indicators
Cycle Definition : Charge/Discharge alternance
External device configuration :
   device type : Other
   device name : Other
   Analog OUT :
      mode : E/V
      unit : KNF Pump/ml/min
      max : 120.000 at 5.000 V
      min : 0.000 at 0.000 V
      current : 4.300
Mode                Single sine
E (V)               0.0000
vs.                 Eoc
tE (h:m:s)          0:00:0.0000
record              0
dI                  0.000
unit dI             mA
dt (s)              0.000
fi                  220.000
unit fi             kHz
ff                  20.000
unit ff             mHz
Nd                  10
Points              per decade
spacing             Logarithmic
Va (mV)             5.0
pw                  0.10
Na                  3
corr                0
E range min (V)     -1.000
E range max (V)     1.000
I Range             Auto
Bandwidth           8
nc cycles           2
goto Ns'            0
nr cycles           0
inc. cycle          0

freq/Hz	Re(Z)/Ohm	-Im(Z)/Ohm	|Z|/Ohm	Phase(Z)/deg	time/s	<Ewe>/V	<I>/mA	Cs/µF	Cp/µF	cycle number	I Range	|Ewe|/V	|I|/A	Ns	(Q-Qo)/mA.h	Analog OUT/V	THD Ewe/%	NSD Ewe/%	NSR Ewe/%	|Ewe h2|/V	|Ewe h3|/V	|Ewe h4|/V	|Ewe h5|/V	|Ewe h6|/V	|Ewe h7|/V	THD I/%	NSD I/%	NSR I/%	|I h2|/A	|I h3|/A	|I h4|/A	|I h5|/A	|I h6|/A	|I h7|/A	Re(Y)/Ohm-1	Im(Y)/Ohm-1	|Y|/Ohm-1	Phase(Y)/deg	Re(C)/nF	Im(C)/nF	|C|/nF	Phase(C)/deg	Re(M)	Im(M)	|M|	Phase(M)/deg	Re(Permittivity)	Im(Permittivity)	|Permittivity|	Phase(Permittivity)/deg	Re(Resistivity)/Ohm.cm	Im(Resistivity)/Ohm.cm	|Resistivity|/Ohm.cm	Phase(Resistivity)/deg	Re(Conductivity)/mS/cm	Im(Conductivity)/mS/cm	|Conductivity|/mS/cm	Phase(Conductivity)/deg	Tan(Delta)	Loss Angle(Delta)/deg	dq/mA.h
220003	0.0809127	-0.0225578	0.0839983	15.578	101444	0.000210197	-0.377885	-32.0697	-2.31285	1	37	0.00298633	0.0355523	0	-0.000216531	6.2	-1	-1	-1	0	0	0	0	0	0	-1	-1	-1	0	0	0	0	0	0	11.4677	-3.19709	11.905	-15.578	-2312.85	8295.98	8612.35	-105.578	0.0000000E+000	0.0000000E+000	0.0000000E+000	105.578	0.0000000E+000	0.0000000E+000	0.0000000E+000	-105.578	0.0000000E+000	0.0000000E+000	0.0000000E+000	15.578	0.0000000E+000	0.0000000E+000	0.0000000E+000	-15.578	3.5869	74.422	-0.000216531
8590.41	0.112398	0.021118	0.114364	-10.641	101460	8.42045e-05	-1.01076	877.312	29.9141	1	37	0.00528373	0.0462008	0	-0.00241037	6.2	0.325777	0.189341	5.92267	6.13993e-06	4.57299e-06	3.86896e-06	8.63026e-06	1.0106e-05	3.12686e-06	0.103131	0.0662773	0.458252	2.97174e-06	4.58173e-05	5.53119e-06	8.74042e-06	4.5218e-06	4.48987e-06	8.59361	1.61462	8.74397	10.641	29914.1	159214	162000	-79.359	0.0000000E+000	0.0000000E+000	0.0000000E+000	79.359	0.0000000E+000	0.0000000E+000	0.0000000E+000	-79.359	0.0000000E+000	0.0000000E+000	0.0000000E+000	-10.641	0.0000000E+000	0.0000000E+000	0.0000000E+000	10.641	5.32237	79.359	-0.000345002
335.537	0.154317	0.00811305	0.15453	-3.0095	101478	0.000144787	-0.865352	58465	161.153	1	37	0.00500533	0.0323907	0	-0.00669127	6.2	0.314558	0.110306	6.35367	5.33498e-06	4.88534e-06	6.40924e-06	6.30054e-06	8.9664e-06	4.72194e-06	0.0820141	0.015785	0.643937	6.54614e-06	2.03235e-05	6.03972e-06	1.31754e-05	3.57326e-06	1.6405e-06	6.46231	0.33975	6.47124	3.0095	161153	3.06526e+06	3.0695e+06	-86.9905	0.0000000E+000	0.0000000E+000	0.0000000E+000	86.9905	0.0000000E+000	0.0000000E+000	0.0000000E+000	-86.9905	0.0000000E+000	0.0000000E+000	0.0000000E+000	-3.0095	0.0000000E+000	0.0000000E+000	0.0000000E+000	3.0095	19.0208	86.9905	-0.000323853
13.1083	0.159337	0.00277784	0.159361	-0.998783	101494	0.000118858	-0.895623	4.37087e+06	1328.07	1	37	0.00525961	0.0330044	0	-0.010427	6.2	0.34671	0.0930819	4.14353	2.43425e-06	4.807e-06	1.48595e-05	5.02773e-06	3.21824e-06	4.24649e-06	0.118376	0.106324	0.470804	1.2086e-05	1.81296e-05	1.56217e-05	2.63699e-05	2.77505e-06	3.94965e-06	6.27412	0.109382	6.27507	0.998783	1.32806e+06	7.61777e+07	7.61893e+07	-89.0012	0.0000000E+000	0.0000000E+000	0.0000000E+000	89.0012	0.0000000E+000	0.0000000E+000	0.0000000E+000	-89.0012	0.0000000E+000	0.0000000E+000	0.0000000E+000	-0.998783	0.0000000E+000	0.0000000E+000	0.0000000E+000	0.998783	57.3598	89.0012	-0.000294666
0.511825	0.168194	0.0139399	0.168771	-4.73784	101555	0.000118219	-0.951113	2.23069e+07	152182	1	37	0.00525485	0.0311361	0	-0.0286819	6.2	0.125972	0.0653421	0.947744	1.76509e-06	5.30342e-06	1.05625e-06	2.69071e-06	7.48491e-07	1.15069e-06	0.121693	0.145644	0.34854	1.09804e-05	2.23613e-05	8.34252e-06	2.43455e-05	4.14985e-06	4.40967e-06	5.90496	0.489402	5.9252	4.73784	1.52182e+08	1.83618e+09	1.84248e+09	-85.2622	0.0000000E+000	0.0000000E+000	0.0000000E+000	85.2622	0.0000000E+000	0.0000000E+000	0.0000000E+000	-85.2622	0.0000000E+000	0.0000000E+000	0.0000000E+000	-4.73784	0.0000000E+000	0.0000000E+000	0.0000000E+000	4.73784	12.0657	85.2622	-0.00548961
0.0199946	0.208402	0.00679998	0.208513	-1.86885	102978	0.00013826	-0.837476	1.17058e+09	1.24494e+06	1	37	0.00524703	0.025164	0	-0.369532	6.2	0.108714	0.168312	0.233988	2.24759e-06	4.03957e-06	9.26417e-07	2.48166e-06	9.24036e-07	7.31082e-07	0.149413	0.119727	0.288399	2.05781e-05	2.09343e-05	6.11409e-06	1.8651e-05	5.55614e-06	3.42418e-06	4.79331	0.156401	4.79586	1.86885	1.24494e+09	3.81542e+10	3.81745e+10	-88.1311	0.0000000E+000	0.0000000E+000	0.0000000E+000	88.1311	0.0000000E+000	0.0000000E+000	0.0000000E+000	-88.1311	0.0000000E+000	0.0000000E+000	0.0000000E+000	-1.86885	0.0000000E+000	0.0000000E+000	0.0000000E+000	1.86885	30.6475	88.1311	-0.0404469
10837.3	0.108404	0.0198178	0.1102	-10.3601	102994	0.000207774	-0.440717	741.045	23.9656	2	37	0.00517221	0.0469346	0	-0.372327	6.2	0.36919	0.157454	6.12212	6.89763e-06	9.19244e-06	5.58751e-06	6.68245e-06	7.71181e-06	4.63934e-06	0.119478	0.0366098	0.440655	5.29766e-06	3.26739e-05	6.062e-06	6.61324e-06	5.8063e-06	4.3694e-05	8.92645	1.63188	9.07439	10.3601	23965.6	131093	133265	-79.6399	0.0000000E+000	0.0000000E+000	0.0000000E+000	79.6399	0.0000000E+000	0.0000000E+000	0.0000000E+000	-79.6399	0.0000000E+000	0.0000000E+000	0.0000000E+000	-10.3601	0.0000000E+000	0.0000000E+000	0.0000000E+000	10.3601	5.47002	79.6399	-0.000140858
[...]
533.464	0.152491	0.0110336	0.15289	-4.13847	104546	0.000109574	-0.944171	27039.4	140.824	3	37	0.00506349	0.0331186	0	-0.747047	6.2	0.248815	0.165815	6.27696	5.00643e-06	6.55124e-06	4.41713e-06	4.45006e-06	3.29791e-06	4.66246e-06	0.0629184	0.0208069	0.643334	4.61569e-06	1.74095e-05	6.57143e-06	4.60834e-06	2.54924e-06	5.4628e-06	6.52361	0.472022	6.54067	4.13847	140824	1.94627e+06	1.95136e+06	-85.8615	0.0000000E+000	0.0000000E+000	0.0000000E+000	85.8615	0.0000000E+000	0.0000000E+000	0.0000000E+000	-85.8615	0.0000000E+000	0.0000000E+000	0.0000000E+000	-4.13847	0.0000000E+000	0.0000000E+000	0.0000000E+000	4.13847	13.8206	85.8615	-0.000299435
20.8333	0.159121	0.00275723	0.159145	-0.992714	104562	0.000117143	-0.890663	2.77069e+06	831.664	3	37	0.00525944	0.0330481	0	-0.75102	6.2	0.345357	0.154453	5.92656	7.59321e-06	8.06904e-06	5.70552e-06	7.5219e-06	4.84047e-06	6.74546e-06	0.140151	0.222075	0.608211	1.10607e-05	2.87434e-05	3.43241e-06	2.69454e-05	5.02952e-06	1.97315e-05	6.28263	0.108865	6.28357	0.992714	831664	4.79958e+07	4.8003e+07	-89.0073	0.0000000E+000	0.0000000E+000	0.0000000E+000	89.0073	0.0000000E+000	0.0000000E+000	0.0000000E+000	-89.0073	0.0000000E+000	0.0000000E+000	0.0000000E+000	-0.992714	0.0000000E+000	0.0000000E+000	0.0000000E+000	0.992714	57.7105	89.0073	-0.000393509
0.813551	0.166233	0.0101789	0.166544	-3.50401	104603	0.000136599	-0.87645	1.92191e+07	71792.1	3	37	0.00525403	0.0315473	0	-0.760296	6.2	0.127593	0.0650647	1.19313	8.61924e-07	5.42814e-06	7.1823e-07	2.89239e-06	1.9703e-06	8.66546e-07	0.117957	0.133626	0.3496	8.14897e-06	2.26853e-05	9.74442e-06	2.39313e-05	4.85143e-06	3.85324e-06	5.99318	0.366979	6.0044	3.50401	7.17922e+07	1.17244e+09	1.17464e+09	-86.496	0.0000000E+000	0.0000000E+000	0.0000000E+000	86.496	0.0000000E+000	0.0000000E+000	0.0000000E+000	-86.496	0.0000000E+000	0.0000000E+000	0.0000000E+000	-3.50401	0.0000000E+000	0.0000000E+000	0.0000000E+000	3.50401	16.3311	86.496	0.0010256
0.0317924	0.207597	0.00967863	0.207823	-2.66932	105500	0.000127057	-0.884703	5.17228e+08	1.12182e+06	3	37	0.00524613	0.0252433	0	-1.02177	6.2	0.123265	0.105575	0.286052	1.18399e-06	5.68196e-06	8.70443e-07	2.01776e-06	1.39454e-06	7.989e-07	0.149606	0.143097	0.319748	1.26364e-05	2.74261e-05	5.36303e-06	1.96024e-05	3.12594e-06	6.56497e-06	4.80657	0.224093	4.81179	2.66932	1.12182e+09	2.4062e+10	2.40881e+10	-87.3307	0.0000000E+000	0.0000000E+000	0.0000000E+000	87.3307	0.0000000E+000	0.0000000E+000	0.0000000E+000	-87.3307	0.0000000E+000	0.0000000E+000	0.0000000E+000	-2.66932	0.0000000E+000	0.0000000E+000	0.0000000E+000	2.66932	21.449	87.3307	-0.0654987
0.0199946	0.209541	0.00710748	0.209662	-1.94269	106048	0.000138057	-0.861092	1.11993e+09	1.28702e+06	3	37	0.00524638	0.0250231	0	-1.13448	6.2	0.113886	0.121059	0.240555	2.03236e-06	4.10355e-06	1.75772e-06	2.14421e-06	9.57291e-07	6.23835e-07	0.124743	0.148559	0.283837	1.06334e-05	1.90058e-05	7.01897e-06	1.8039e-05	5.68794e-06	3.71577e-06	4.76685	0.161688	4.76959	1.94269	1.28702e+09	3.79436e+10	3.79655e+10	-88.0573	0.0000000E+000	0.0000000E+000	0.0000000E+000	88.0573	0.0000000E+000	0.0000000E+000	0.0000000E+000	-88.0573	0.0000000E+000	0.0000000E+000	0.0000000E+000	-1.94269	0.0000000E+000	0.0000000E+000	0.0000000E+000	1.94269	29.4818	88.0573	-0.0509726

File: 240507-EIS-Cloth-1p5M_FeCl2FeCl3-1M_HCl-Wamup_10mLmin-4xFlowRate-20mHz_10ppd_07_PEIS_C15.mpt
EC-Lab ASCII FILE
Nb header lines : 75

Potentio Electrochemical Impedance Spectroscopy

Run on channel : 15 (SN 19485)
User :
Electrode connection : standard
Potential control : Ewe
Ewe ctrl range : min = -1.00 V, max = 1.00 V
Ewe,I filtering : 50 kHz
Safety Limits :
	Do not start on E overload
Channel : Grounded
Acquisition started on : 05/08/2024 12:03:59.706
Loaded Setting File :  C:\Data\mathias\IRFB\240503-EIS-Felt-1p5M_FeCl2FeCl3-1M_HCl-Wamup_10mLmin-4xFlowRate-20mHz_10ppd.mps
Saved on :
	File : 240507-EIS-Cloth-1p5M_FeCl2FeCl3-1M_HCl-Wamup_10mLmin-4xFlowRate-20mHz_10ppd_07_PEIS_C15.mpr
	Directory : C:\Data\mathias\IRFB\
	Host : 192.168.0.1
Device : VMP-300 (SN 0826)
Address : USB
EC-Lab for windows v11.52 (software)
Internet server v11.52 (firmware)
Command interpretor v11.52 (firmware)
Electrode material :
Initial state :
Electrolyte :
Comments :
Cable : special
Electrode surface area : 0.001 cm²
Characteristic mass : 0.001 g
Equivalent Weight : 0.000 g/eq.
Density : 0.000 g/cm3
Volume (V) : 0.001 cm³
Record EIS quality indicators
Cycle Definition : Charge/Discharge alternance
External device configuration :
   device type : Other
   device name : Other
   Analog OUT :
      mode : E/V
      unit : KNF Pump/ml/min
      max : 120.000 at 5.000 V
      min : 0.000 at 0.000 V
      current : 4.300
Mode                Single sine
E (V)               0.0000
vs.                 Eoc
tE (h:m:s)          0:00:0.0000
record              0
dI                  0.000
unit dI             mA
dt (s)              0.000
fi                  220.000
unit fi             kHz
ff                  20.000
unit ff             mHz
Nd                  10
Points              per decade
spacing             Logarithmic
Va (mV)             5.0
pw                  0.10
Na                  3
corr                0
E range min (V)     -1.000
E range max (V)     1.000
I Range             Auto
Bandwidth           8
nc cycles           2
goto Ns'            0
nr cycles           0
inc. cycle          0

freq/Hz	Re(Z)/Ohm	-Im(Z)/Ohm	|Z|/Ohm	Phase(Z)/deg	time/s	<Ewe>/V	<I>/mA	Cs/µF	Cp/µF	cycle number	I Range	|Ewe|/V	|I|/A	Ns	(Q-Qo)/mA.h	Analog OUT/V	THD Ewe/%	NSD Ewe/%	NSR Ewe/%	|Ewe h2|/V	|Ewe h3|/V	|Ewe h4|/V	|Ewe h5|/V	|Ewe h6|/V	|Ewe h7|/V	THD I/%	NSD I/%	NSR I/%	|I h2|/A	|I h3|/A	|I h4|/A	|I h5|/A	|I h6|/A	|I h7|/A	Re(Y)/Ohm-1	Im(Y)/Ohm-1	|Y|/Ohm-1	Phase(Y)/deg	Re(C)/nF	Im(C)/nF	|C|/nF	Phase(C)/deg	Re(M)	Im(M)	|M|	Phase(M)/deg	Re(Permittivity)	Im(Permittivity)	|Permittivity|	Phase(Permittivity)/deg	Re(Resistivity)/Ohm.cm	Im(Resistivity)/Ohm.cm	|Resistivity|/Ohm.cm	Phase(Resistivity)/deg	Re(Conductivity)/mS/cm	Im(Conductivity)/mS/cm	|Conductivity|/mS/cm	Phase(Conductivity)/deg	Tan(Delta)	Loss Angle(Delta)/deg	dq/mA.h
220003	0.0809298	-0.0223168	0.0839504	15.4164	106650	0.000214223	-0.260188	-32.4161	-2.29075	1	37	0.00298617	0.0355707	0	-0.000135302	10.8	-1	-1	-1	0	0	0	0	0	0	-1	-1	-1	0	0	0	0	0	0	11.4832	-3.16655	11.9118	-15.4164	-2290.75	8307.21	8617.27	-105.416	0.0000000E+000	0.0000000E+000	0.0000000E+000	105.416	0.0000000E+000	0.0000000E+000	0.0000000E+000	-105.416	0.0000000E+000	0.0000000E+000	0.0000000E+000	15.4164	0.0000000E+000	0.0000000E+000	0.0000000E+000	-15.4164	3.62641	74.5835	-0.000135302
8590.41	0.112479	0.021384	0.114494	-10.7643	106667	0.000104131	-0.887797	866.397	30.2226	1	37	0.00527253	0.0460508	0	-0.00191036	10.8	0.286951	0.222525	5.90499	5.18063e-06	7.26745e-06	6.02483e-06	5.67315e-06	7.1359e-06	3.86867e-06	0.108451	0.0608968	0.454063	2.90133e-06	4.77881e-05	5.92117e-06	8.94763e-06	5.47508e-06	4.84718e-06	8.5804	1.63127	8.73409	10.7643	30222.6	158970	161817	-79.2356	0.0000000E+000	0.0000000E+000	0.0000000E+000	79.2356	0.0000000E+000	0.0000000E+000	0.0000000E+000	-79.2356	0.0000000E+000	0.0000000E+000	0.0000000E+000	-10.7643	0.0000000E+000	0.0000000E+000	0.0000000E+000	10.7643	5.25996	79.2356	-0.000286828
335.537	0.155148	0.00822883	0.155366	-3.03604	106685	0.000114533	-0.837081	57642.4	161.698	1	37	0.00515269	0.0331648	0	-0.00604806	10.8	0.358773	0.177936	6.1512	5.71288e-06	5.64333e-06	8.79981e-06	7.07011e-06	6.08536e-06	7.5454e-06	0.0803529	0.0216616	0.629212	4.30188e-06	1.97012e-05	5.77863e-06	1.40675e-05	6.8321e-06	3.88197e-06	6.42738	0.340899	6.43641	3.03604	161698	3.04869e+06	3.05298e+06	-86.964	0.0000000E+000	0.0000000E+000	0.0000000E+000	86.964	0.0000000E+000	0.0000000E+000	0.0000000E+000	-86.964	0.0000000E+000	0.0000000E+000	0.0000000E+000	-3.03604	0.0000000E+000	0.0000000E+000	0.0000000E+000	3.03604	18.8542	86.964	-0.000283407
13.1083	0.160559	0.00265547	0.160581	-0.947523	106700	0.00012705	-0.914774	4.57229e+06	1250.34	1	37	0.00541472	0.0337195	0	-0.00988765	10.8	0.334985	0.0994056	3.95661	5.71421e-06	1.15761e-05	4.1394e-06	7.72148e-06	5.90339e-06	3.84658e-06	0.140896	0.131218	0.450731	6.70536e-06	2.92299e-05	2.61538e-05	2.46408e-05	4.89008e-06	4.40558e-06	6.22653	0.10298	6.22738	0.947523	1.25034e+06	7.55999e+07	7.56103e+07	-89.0525	0.0000000E+000	0.0000000E+000	0.0000000E+000	89.0525	0.0000000E+000	0.0000000E+000	0.0000000E+000	-89.0525	0.0000000E+000	0.0000000E+000	0.0000000E+000	-0.947523	0.0000000E+000	0.0000000E+000	0.0000000E+000	0.947523	60.4635	89.0525	-0.000139123
0.511825	0.170224	0.0135656	0.170763	-4.55644	106761	0.00012861	-0.860023	2.29223e+07	144660	1	37	0.00541105	0.0316874	0	-0.0257115	10.8	0.122141	0.0573248	0.892074	1.91023e-06	4.77489e-06	1.2755e-06	3.21285e-06	9.74901e-07	1.65336e-06	0.145116	0.117534	0.338652	1.02775e-05	3.27811e-05	6.72419e-06	2.8404e-05	4.84031e-06	4.10566e-06	5.83755	0.465211	5.85605	4.55644	1.4466e+08	1.81522e+09	1.82097e+09	-85.4436	0.0000000E+000	0.0000000E+000	0.0000000E+000	85.4436	0.0000000E+000	0.0000000E+000	0.0000000E+000	-85.4436	0.0000000E+000	0.0000000E+000	0.0000000E+000	-4.55644	0.0000000E+000	0.0000000E+000	0.0000000E+000	4.55644	12.5482	85.4436	-0.00120831
0.0199946	0.199175	0.00439938	0.199224	-1.26534	108184	0.000118346	-0.865912	1.80932e+09	882299	1	37	0.00540189	0.0271146	0	-0.316208	10.8	0.116694	0.116649	0.226494	1.58079e-06	5.02763e-06	1.5647e-06	2.54772e-06	7.35326e-07	4.39771e-07	0.118193	0.226334	0.262406	6.65594e-06	1.92007e-05	1.02913e-05	2.0199e-05	6.75631e-06	3.13859e-06	5.01825	0.110843	5.01948	1.26534	8.823e+08	3.99448e+10	3.99545e+10	-88.7347	0.0000000E+000	0.0000000E+000	0.0000000E+000	88.7347	0.0000000E+000	0.0000000E+000	0.0000000E+000	-88.7347	0.0000000E+000	0.0000000E+000	0.0000000E+000	-1.26534	0.0000000E+000	0.0000000E+000	0.0000000E+000	1.26534	45.2735	88.7347	-0.0378176
10837.3	0.108832	0.0201325	0.110678	-10.4805	108200	0.000206823	-0.412856	729.461	24.1363	2	37	0.00517372	0.0467455	0	-0.319157	10.8	0.312067	0.163691	6.02226	5.35676e-06	4.53376e-06	5.76749e-06	6.92945e-06	3.93902e-06	7.5157e-06	0.125539	0.035807	0.430395	5.05525e-06	3.5907e-05	5.19753e-06	5.04709e-06	4.05686e-06	4.50248e-05	8.88446	1.64351	9.03519	10.4805	24136.3	130476	132690	-79.5195	0.0000000E+000	0.0000000E+000	0.0000000E+000	79.5195	0.0000000E+000	0.0000000E+000	0.0000000E+000	-79.5195	0.0000000E+000	0.0000000E+000	0.0000000E+000	-10.4805	0.0000000E+000	0.0000000E+000	0.0000000E+000	10.4805	5.40578	79.5195	-6.43136e-05
[...]
533.464	0.154336	0.0112767	0.154747	-4.17895	109752	9.29656e-05	-0.857703	26456.5	140.492	3	37	0.00535597	0.0346112	0	-0.680066	10.8	0.273988	0.137526	5.7951	4.63316e-06	4.75426e-06	6.0543e-06	6.27176e-06	6.53208e-06	5.14088e-06	0.0626667	0.0260698	0.598295	5.72911e-06	1.38194e-05	6.5384e-06	1.16887e-05	5.64306e-06	3.71682e-06	6.44498	0.470909	6.46216	4.17895	140492	1.92281e+06	1.92794e+06	-85.821	0.0000000E+000	0.0000000E+000	0.0000000E+000	85.821	0.0000000E+000	0.0000000E+000	0.0000000E+000	-85.821	0.0000000E+000	0.0000000E+000	0.0000000E+000	-4.17895	0.0000000E+000	0.0000000E+000	0.0000000E+000	4.17895	13.6862	85.821	-0.000292171
20.8333	0.161426	0.0027245	0.161449	-0.966929	109768	0.000110973	-0.808532	2.80399e+06	798.507	3	37	0.00510238	0.0316037	0	-0.683717	10.8	0.28639	0.169572	6.11397	7.82949e-06	9.13274e-06	3.65543e-06	2.09333e-06	2.92161e-06	5.17437e-06	0.124772	0.194651	0.620403	6.24432e-06	2.65088e-05	7.93372e-06	2.37027e-05	5.78937e-06	1.04675e-05	6.19303	0.104524	6.19392	0.966929	798505	4.73113e+07	4.73181e+07	-89.0331	0.0000000E+000	0.0000000E+000	0.0000000E+000	89.0331	0.0000000E+000	0.0000000E+000	0.0000000E+000	-89.0331	0.0000000E+000	0.0000000E+000	0.0000000E+000	-0.966929	0.0000000E+000	0.0000000E+000	0.0000000E+000	0.966929	59.2498	89.0331	-0.000219166
0.813551	0.168345	0.00966345	0.168622	-3.28533	109809	0.000120006	-0.780929	2.02443e+07	66487.6	3	37	0.00510085	0.0302503	0	-0.692779	10.8	0.0877183	0.061614	1.19894	1.03336e-06	2.63148e-06	1.39263e-06	1.79464e-06	9.46933e-07	1.66318e-06	0.132311	0.152228	0.369509	1.64403e-05	2.47818e-05	6.15347e-06	2.48726e-05	5.31563e-06	2.53952e-06	5.92069	0.339864	5.93044	3.28533	6.64876e+07	1.15826e+09	1.16017e+09	-86.7147	0.0000000E+000	0.0000000E+000	0.0000000E+000	86.7147	0.0000000E+000	0.0000000E+000	0.0000000E+000	-86.7147	0.0000000E+000	0.0000000E+000	0.0000000E+000	-3.28533	0.0000000E+000	0.0000000E+000	0.0000000E+000	3.28533	17.4208	86.7147	-0.00257462
0.0317924	0.199534	0.00600839	0.199624	-1.72478	110706	0.00012776	-0.799686	8.33178e+08	754794	3	37	0.00509326	0.0255142	0	-0.90652	10.8	0.0993935	0.124376	0.280295	1.77866e-06	3.62285e-06	1.03047e-06	2.45415e-06	5.94123e-07	6.74691e-07	0.138136	0.187396	0.298202	1.13782e-05	1.95184e-05	1.11408e-05	2.23022e-05	7.14544e-06	5.61061e-06	5.00715	0.150776	5.00942	1.72478	7.54793e+08	2.50661e+10	2.50774e+10	-88.2752	0.0000000E+000	0.0000000E+000	0.0000000E+000	88.2752	0.0000000E+000	0.0000000E+000	0.0000000E+000	-88.2752	0.0000000E+000	0.0000000E+000	0.0000000E+000	-1.72478	0.0000000E+000	0.0000000E+000	0.0000000E+000	1.72478	33.2091	88.2752	-0.0239172
0.0199946	0.200725	0.00438795	0.200773	-1.25232	111255	0.000126083	-0.848249	1.81404e+09	866483	3	37	0.00509334	0.0253687	0	-0.990577	10.8	0.11963	0.0673331	0.231483	2.80799e-06	4.45846e-06	1.3051e-06	2.18695e-06	6.81056e-07	1.10205e-06	0.157061	0.116965	0.261913	1.92872e-05	2.21349e-05	1.2371e-05	2.10188e-05	3.54414e-06	5.66132e-06	4.97957	0.108856	4.98076	1.25232	8.66485e+08	3.96369e+10	3.96463e+10	-88.7477	0.0000000E+000	0.0000000E+000	0.0000000E+000	88.7477	0.0000000E+000	0.0000000E+000	0.0000000E+000	-88.7477	0.0000000E+000	0.0000000E+000	0.0000000E+000	-1.25232	0.0000000E+000	0.0000000E+000	0.0000000E+000	1.25232	45.7445	88.7477	-0.0549717