Folder: Thesis/Python/Experiments/IRFB/240507-Cloth-1p5M_FeCl2FeCl3-1M_HCl/Data (part 3)

File: 240507-EIS-Cloth-1p5M_FeCl2FeCl3-1M_HCl-Wamup_10mLmin-4xFlowRate-20mHz_10ppd_09_PEIS_C15.mpt
EC-Lab ASCII FILE
Nb header lines : 75

Potentio Electrochemical Impedance Spectroscopy

Run on channel : 15 (SN 19485)
User :
Electrode connection : standard
Potential control : Ewe
Ewe ctrl range : min = -1.00 V, max = 1.00 V
Ewe,I filtering : 50 kHz
Safety Limits :
	Do not start on E overload
Channel : Grounded
Acquisition started on : 05/08/2024 12:03:59.706
Loaded Setting File :  C:\Data\mathias\IRFB\240503-EIS-Felt-1p5M_FeCl2FeCl3-1M_HCl-Wamup_10mLmin-4xFlowRate-20mHz_10ppd.mps
Saved on :
	File : 240507-EIS-Cloth-1p5M_FeCl2FeCl3-1M_HCl-Wamup_10mLmin-4xFlowRate-20mHz_10ppd_09_PEIS_C15.mpr
	Directory : C:\Data\mathias\IRFB\
	Host : 192.168.0.1
Device : VMP-300 (SN 0826)
Address : USB
EC-Lab for windows v11.52 (software)
Internet server v11.52 (firmware)
Command interpretor v11.52 (firmware)
Electrode material :
Initial state :
Electrolyte :
Comments :
Cable : special
Electrode surface area : 0.001 cm²
Characteristic mass : 0.001 g
Equivalent Weight : 0.000 g/eq.
Density : 0.000 g/cm3
Volume (V) : 0.001 cm³
Record EIS quality indicators
Cycle Definition : Charge/Discharge alternance
External device configuration :
   device type : Other
   device name : Other
   Analog OUT :
      mode : E/V
      unit : KNF Pump/ml/min
      max : 120.000 at 5.000 V
      min : 0.000 at 0.000 V
      current : 4.300
Mode                Single sine
E (V)               0.0000
vs.                 Eoc
tE (h:m:s)          0:00:0.0000
record              0
dI                  0.000
unit dI             mA
dt (s)              0.000
fi                  220.000
unit fi             kHz
ff                  20.000
unit ff             mHz
Nd                  10
Points              per decade
spacing             Logarithmic
Va (mV)             5.0
pw                  0.10
Na                  3
corr                0
E range min (V)     -1.000
E range max (V)     1.000
I Range             Auto
Bandwidth           8
nc cycles           2
goto Ns'            0
nr cycles           0
inc. cycle          0

freq/Hz	Re(Z)/Ohm	-Im(Z)/Ohm	|Z|/Ohm	Phase(Z)/deg	time/s	<Ewe>/V	<I>/mA	Cs/µF	Cp/µF	cycle number	I Range	|Ewe|/V	|I|/A	Ns	(Q-Qo)/mA.h	Analog OUT/V	THD Ewe/%	NSD Ewe/%	NSR Ewe/%	|Ewe h2|/V	|Ewe h3|/V	|Ewe h4|/V	|Ewe h5|/V	|Ewe h6|/V	|Ewe h7|/V	THD I/%	NSD I/%	NSR I/%	|I h2|/A	|I h3|/A	|I h4|/A	|I h5|/A	|I h6|/A	|I h7|/A	Re(Y)/Ohm-1	Im(Y)/Ohm-1	|Y|/Ohm-1	Phase(Y)/deg	Re(C)/nF	Im(C)/nF	|C|/nF	Phase(C)/deg	Re(M)	Im(M)	|M|	Phase(M)/deg	Re(Permittivity)	Im(Permittivity)	|Permittivity|	Phase(Permittivity)/deg	Re(Resistivity)/Ohm.cm	Im(Resistivity)/Ohm.cm	|Resistivity|/Ohm.cm	Phase(Resistivity)/deg	Re(Conductivity)/mS/cm	Im(Conductivity)/mS/cm	|Conductivity|/mS/cm	Phase(Conductivity)/deg	Tan(Delta)	Loss Angle(Delta)/deg	dq/mA.h
220003	0.0813443	-0.0223029	0.0843465	15.3325	111857	0.000204586	-0.320302	-32.4362	-2.26788	1	37	0.00300126	0.0355826	0	-0.000167618	24.5	-1	-1	-1	0	0	0	0	0	0	-1	-1	-1	0	0	0	0	0	0	11.4339	-3.13493	11.8559	-15.3325	-2267.88	8271.53	8576.8	-105.333	0.0000000E+000	0.0000000E+000	0.0000000E+000	105.333	0.0000000E+000	0.0000000E+000	0.0000000E+000	-105.333	0.0000000E+000	0.0000000E+000	0.0000000E+000	15.3325	0.0000000E+000	0.0000000E+000	0.0000000E+000	-15.3325	3.64725	74.6675	-0.000167618
8590.41	0.113144	0.0217629	0.115218	-10.8877	111873	9.00204e-05	-0.861611	851.314	30.3728	1	37	0.00527493	0.0457823	0	-0.00162956	24.5	0.240474	0.193184	5.72365	3.51778e-06	5.00993e-06	4.38872e-06	3.81886e-06	5.90527e-06	6.18793e-06	0.109232	0.0589987	0.445219	3.70037e-06	4.8133e-05	6.45217e-06	7.49574e-06	4.70422e-06	4.32533e-06	8.52299	1.63938	8.67923	10.8877	30372.8	157906	160800	-79.1123	0.0000000E+000	0.0000000E+000	0.0000000E+000	79.1123	0.0000000E+000	0.0000000E+000	0.0000000E+000	-79.1123	0.0000000E+000	0.0000000E+000	0.0000000E+000	-10.8877	0.0000000E+000	0.0000000E+000	0.0000000E+000	10.8877	5.19893	79.1123	-0.000165034
335.537	0.157551	0.00864116	0.157787	-3.13935	111891	0.000108344	-0.907916	54891.8	164.63	1	37	0.00531784	0.0337026	0	-0.00587823	24.5	0.272333	0.122803	5.64573	3.41785e-06	8.21447e-06	6.20832e-06	4.89049e-06	4.7341e-06	5.4691e-06	0.0792317	0.011768	0.604404	4.27306e-06	2.19276e-05	6.3462e-06	1.09119e-05	3.75343e-06	4.05913e-06	6.32813	0.347079	6.33765	3.13935	164630	3.00162e+06	3.00613e+06	-86.8606	0.0000000E+000	0.0000000E+000	0.0000000E+000	86.8606	0.0000000E+000	0.0000000E+000	0.0000000E+000	-86.8606	0.0000000E+000	0.0000000E+000	0.0000000E+000	-3.13935	0.0000000E+000	0.0000000E+000	0.0000000E+000	3.13935	18.2326	86.8606	-0.000261902
13.1083	0.162964	0.00280273	0.162988	-0.985301	111906	0.000109957	-0.880567	4.33206e+06	1280.99	1	37	0.00510195	0.0313026	0	-0.00984768	24.5	0.515016	0.115305	4.11996	2.83927e-06	6.74318e-06	3.45864e-06	2.36522e-05	3.65386e-06	4.23504e-06	0.135672	0.142109	0.47252	8.40096e-06	2.02224e-05	2.42898e-05	2.56744e-05	3.49336e-06	4.67944e-06	6.13451	0.105504	6.13542	0.985301	1.28098e+06	7.44827e+07	7.44937e+07	-89.0147	0.0000000E+000	0.0000000E+000	0.0000000E+000	89.0147	0.0000000E+000	0.0000000E+000	0.0000000E+000	-89.0147	0.0000000E+000	0.0000000E+000	0.0000000E+000	-0.985301	0.0000000E+000	0.0000000E+000	0.0000000E+000	0.985301	58.1448	89.0147	-0.000120766
0.511825	0.172854	0.0133012	0.173365	-4.40028	111967	0.000122844	-0.833548	2.3378e+07	137616	1	37	0.00509915	0.0294128	0	-0.0235344	24.5	0.117372	0.0889505	0.933644	1.33177e-06	4.00186e-06	1.40892e-06	2.64293e-06	2.46878e-06	1.02137e-06	0.129973	0.0935208	0.366042	6.71507e-06	2.37813e-05	9.51028e-06	2.29326e-05	1.11134e-05	6.11638e-06	5.75118	0.442557	5.76818	4.40028	1.37616e+08	1.78836e+09	1.79365e+09	-85.5997	0.0000000E+000	0.0000000E+000	0.0000000E+000	85.5997	0.0000000E+000	0.0000000E+000	0.0000000E+000	-85.5997	0.0000000E+000	0.0000000E+000	0.0000000E+000	-4.40028	0.0000000E+000	0.0000000E+000	0.0000000E+000	4.40028	12.9953	85.5997	0.000403181
0.0199946	0.199639	0.00407377	0.199681	-1.169	113391	0.000132581	-0.780185	1.95394e+09	813264	1	37	0.00509356	0.0255085	0	-0.290758	24.5	0.126077	0.167414	0.242465	2.78878e-06	4.51259e-06	2.26037e-06	1.75054e-06	1.16891e-06	9.31614e-07	0.14227	0.183238	0.264457	1.07743e-05	2.63047e-05	5.59799e-06	1.86726e-05	6.31984e-06	6.46016e-06	5.00695	0.10217	5.008	1.169	8.13266e+08	3.98548e+10	3.98631e+10	-88.831	0.0000000E+000	0.0000000E+000	0.0000000E+000	88.831	0.0000000E+000	0.0000000E+000	0.0000000E+000	-88.831	0.0000000E+000	0.0000000E+000	0.0000000E+000	-1.169	0.0000000E+000	0.0000000E+000	0.0000000E+000	1.169	49.006	88.831	-0.0477238
10837.3	0.109429	0.020484	0.111329	-10.6025	113407	0.000224588	-0.285517	716.943	24.2714	2	37	0.00517499	0.0464836	0	-0.292881	24.5	0.340107	0.114416	5.9285	6.49784e-06	5.58735e-06	4.712e-06	7.25176e-06	6.70585e-06	7.41373e-06	0.119149	0.0298745	0.440314	5.26464e-06	3.34549e-05	3.93808e-06	4.9071e-06	3.6452e-06	4.26682e-05	8.82901	1.6527	8.98236	10.6025	24271.4	129662	131914	-79.3975	0.0000000E+000	0.0000000E+000	0.0000000E+000	79.3975	0.0000000E+000	0.0000000E+000	0.0000000E+000	-79.3975	0.0000000E+000	0.0000000E+000	0.0000000E+000	-10.6025	0.0000000E+000	0.0000000E+000	0.0000000E+000	10.6025	5.34216	79.3975	-0.000148083
[...]
533.464	0.15589	0.0117961	0.156336	-4.32727	114959	0.000125438	-0.838887	25291.7	143.991	3	37	0.00537597	0.0343873	0	-0.619963	24.5	0.234947	0.129017	5.71897	4.07668e-06	4.95633e-06	3.51189e-06	4.90418e-06	4.82128e-06	4.32673e-06	0.0592563	0.0118508	0.595679	3.29646e-06	1.44079e-05	6.78823e-06	1.00786e-05	4.63811e-06	4.14514e-06	6.37825	0.482636	6.39648	4.32727	143991	1.9029e+06	1.90834e+06	-85.6727	0.0000000E+000	0.0000000E+000	0.0000000E+000	85.6727	0.0000000E+000	0.0000000E+000	0.0000000E+000	-85.6727	0.0000000E+000	0.0000000E+000	0.0000000E+000	-4.32727	0.0000000E+000	0.0000000E+000	0.0000000E+000	4.32727	13.2154	85.6727	-0.00022206
20.8333	0.163451	0.00287981	0.163477	-1.00938	114974	0.000128569	-0.774436	2.65276e+06	823.215	3	37	0.00541558	0.0331275	0	-0.623502	24.5	0.36557	0.179604	5.61127	1.0114e-05	1.0116e-05	4.78856e-06	3.38244e-06	4.59902e-06	7.74563e-06	0.120307	0.174525	0.594634	9.01784e-06	2.55682e-05	7.88793e-06	2.38256e-05	5.13435e-06	1.20716e-05	6.11613	0.107758	6.11708	1.00938	823216	4.67238e+07	4.67311e+07	-88.9906	0.0000000E+000	0.0000000E+000	0.0000000E+000	88.9906	0.0000000E+000	0.0000000E+000	0.0000000E+000	-88.9906	0.0000000E+000	0.0000000E+000	0.0000000E+000	-1.00938	0.0000000E+000	0.0000000E+000	0.0000000E+000	1.00938	56.7577	88.9906	-0.000179985
0.813551	0.170326	0.00969288	0.170602	-3.25706	115015	0.000133775	-0.76779	2.01828e+07	65150.9	3	37	0.00541079	0.0317159	0	-0.632981	24.5	0.128342	0.0624717	1.106	1.64572e-06	5.50451e-06	9.42185e-07	2.74698e-06	2.06291e-06	1.13745e-06	0.157162	0.128981	0.345813	1.24417e-05	3.37616e-05	1.07602e-05	2.89326e-05	8.15408e-06	7.02025e-06	5.85213	0.333032	5.8616	3.25706	6.51509e+07	1.14485e+09	1.1467e+09	-86.7429	0.0000000E+000	0.0000000E+000	0.0000000E+000	86.7429	0.0000000E+000	0.0000000E+000	0.0000000E+000	-86.7429	0.0000000E+000	0.0000000E+000	0.0000000E+000	-3.25706	0.0000000E+000	0.0000000E+000	0.0000000E+000	3.25706	17.5723	86.7429	-0.003349
0.0317924	0.199541	0.00548271	0.199616	-1.5739	115912	0.000138994	-0.774574	9.13063e+08	688812	3	37	0.0054013	0.0270585	0	-0.816207	24.5	0.10267	0.127138	0.251857	1.21276e-06	4.40217e-06	1.09148e-06	2.46616e-06	7.91796e-07	8.10871e-07	0.134597	0.189936	0.276528	1.57394e-05	2.00796e-05	5.2324e-06	2.25568e-05	2.59102e-06	7.15706e-06	5.00773	0.137596	5.00962	1.5739	6.88811e+08	2.5069e+10	2.50784e+10	-88.4261	0.0000000E+000	0.0000000E+000	0.0000000E+000	88.4261	0.0000000E+000	0.0000000E+000	0.0000000E+000	-88.4261	0.0000000E+000	0.0000000E+000	0.0000000E+000	-1.5739	0.0000000E+000	0.0000000E+000	0.0000000E+000	1.5739	36.3945	88.4261	-0.0156002
0.0199946	0.200634	0.00405068	0.200675	-1.15661	116461	0.000118052	-0.815306	1.96507e+09	800659	3	37	0.00540249	0.0269216	0	-0.915244	24.5	0.106291	0.0961306	0.233771	2.15412e-06	4.06202e-06	1.32486e-06	2.52977e-06	1.0984e-06	1.21287e-06	0.140458	0.169561	0.255577	1.74216e-05	2.05378e-05	6.0009e-06	2.36644e-05	2.2592e-06	8.10917e-06	4.98216	0.100587	4.98317	1.15661	8.00659e+08	3.96575e+10	3.96655e+10	-88.8434	0.0000000E+000	0.0000000E+000	0.0000000E+000	88.8434	0.0000000E+000	0.0000000E+000	0.0000000E+000	-88.8434	0.0000000E+000	0.0000000E+000	0.0000000E+000	-1.15661	0.0000000E+000	0.0000000E+000	0.0000000E+000	1.15661	49.531	88.8434	-0.0652218