Folder: Thesis/Python/Experiments/IRFB/240507-Cloth-1p5M_FeCl2FeCl3-1M_HCl/Data

File: 240507-EIS-Cloth-1p5M_FeCl2FeCl3-1M_HCl-Wamup_10mLmin-4xFlowRate-20mHz_10ppd_02_PEIS_C15.mpt
EC-Lab ASCII FILE
Nb header lines : 75

Potentio Electrochemical Impedance Spectroscopy

Run on channel : 15 (SN 19485)
User :
Electrode connection : standard
Potential control : Ewe
Ewe ctrl range : min = -1.00 V, max = 1.00 V
Ewe,I filtering : 50 kHz
Safety Limits :
	Do not start on E overload
Channel : Grounded
Acquisition started on : 05/08/2024 12:03:59.706
Loaded Setting File :  C:\Data\mathias\IRFB\240503-EIS-Felt-1p5M_FeCl2FeCl3-1M_HCl-Wamup_10mLmin-4xFlowRate-20mHz_10ppd.mps
Saved on :
	File : 240507-EIS-Cloth-1p5M_FeCl2FeCl3-1M_HCl-Wamup_10mLmin-4xFlowRate-20mHz_10ppd_02_PEIS_C15.mpr
	Directory : C:\Data\mathias\IRFB\
	Host : 192.168.0.1
Device : VMP-300 (SN 0826)
Address : USB
EC-Lab for windows v11.52 (software)
Internet server v11.52 (firmware)
Command interpretor v11.52 (firmware)
Electrode material :
Initial state :
Electrolyte :
Comments :
Cable : special
Electrode surface area : 0.001 cm²
Characteristic mass : 0.001 g
Equivalent Weight : 0.000 g/eq.
Density : 0.000 g/cm3
Volume (V) : 0.001 cm³
Record EIS quality indicators
Cycle Definition : Charge/Discharge alternance
External device configuration :
   device type : Other
   device name : Other
   Analog OUT :
      mode : E/V
      unit : KNF Pump/ml/min
      max : 120.000 at 5.000 V
      min : 0.000 at 0.000 V
      current : 4.300
Mode                Single sine
E (V)               0.0000
vs.                 Eoc
tE (h:m:s)          0:00:0.0000
record              0
dI                  0.000
unit dI             mA
dt (s)              0.000
fi                  220.000
unit fi             kHz
ff                  20.000
unit ff             mHz
Nd                  10
Points              per decade
spacing             Logarithmic
Va (mV)             5.0
pw                  0.10
Na                  3
corr                0
E range min (V)     -1.000
E range max (V)     1.000
I Range             Auto
Bandwidth           8
nc cycles           59
goto Ns'            0
nr cycles           0
inc. cycle          0

freq/Hz	Re(Z)/Ohm	-Im(Z)/Ohm	|Z|/Ohm	Phase(Z)/deg	time/s	<Ewe>/V	<I>/mA	Cs/µF	Cp/µF	cycle number	I Range	|Ewe|/V	|I|/A	Ns	(Q-Qo)/mA.h	Analog OUT/V	THD Ewe/%	NSD Ewe/%	NSR Ewe/%	|Ewe h2|/V	|Ewe h3|/V	|Ewe h4|/V	|Ewe h5|/V	|Ewe h6|/V	|Ewe h7|/V	THD I/%	NSD I/%	NSR I/%	|I h2|/A	|I h3|/A	|I h4|/A	|I h5|/A	|I h6|/A	|I h7|/A	Re(Y)/Ohm-1	Im(Y)/Ohm-1	|Y|/Ohm-1	Phase(Y)/deg	Re(C)/nF	Im(C)/nF	|C|/nF	Phase(C)/deg	Re(M)	Im(M)	|M|	Phase(M)/deg	Re(Permittivity)	Im(Permittivity)	|Permittivity|	Phase(Permittivity)/deg	Re(Resistivity)/Ohm.cm	Im(Resistivity)/Ohm.cm	|Resistivity|/Ohm.cm	Phase(Resistivity)/deg	Re(Conductivity)/mS/cm	Im(Conductivity)/mS/cm	|Conductivity|/mS/cm	Phase(Conductivity)/deg	Tan(Delta)	Loss Angle(Delta)/deg	dq/mA.h
220003	0.0786665	-0.0226026	0.0818492	16.0305	601.823	0.000187474	-0.319465	-32.0061	-2.44074	1	37	0.00291093	0.0355646	0	-0.000137311	4.3	-1	-1	-1	0	0	0	0	0	0	-1	-1	-1	0	0	0	0	0	0	11.7425	-3.37388	12.2176	-16.0305	-2440.74	8494.79	8838.48	-106.031	0.0000000E+000	0.0000000E+000	0.0000000E+000	106.031	0.0000000E+000	0.0000000E+000	0.0000000E+000	-106.031	0.0000000E+000	0.0000000E+000	0.0000000E+000	16.0305	0.0000000E+000	0.0000000E+000	0.0000000E+000	-16.0305	3.48041	73.9695	-0.000137311
0.255612	0.161542	0.0247056	0.163421	-8.69522	5503.5	0.000105528	-0.842111	2.52025e+07	576000	4	37	0.00525806	0.0321751	0	-1.19591	4.3	0.099918	0.0680519	0.671133	4.97111e-07	3.66441e-06	1.35924e-06	2.49776e-06	1.68453e-06	1.20193e-06	0.137694	0.272014	0.375559	1.62392e-05	2.22523e-05	8.74283e-06	2.24643e-05	1.20522e-05	1.0438e-05	6.04885	0.925088	6.11918	8.69522	5.76e+08	3.76628e+09	3.81007e+09	-81.3048	0.0000000E+000	0.0000000E+000	0.0000000E+000	81.3048	0.0000000E+000	0.0000000E+000	0.0000000E+000	-81.3048	0.0000000E+000	0.0000000E+000	0.0000000E+000	-8.69522	0.0000000E+000	0.0000000E+000	0.0000000E+000	8.69522	6.53868	81.3048	-0.00280725
4.11618	0.147716	0.00455642	0.147786	-1.76678	11721.7	0.000129427	-0.810221	8.48598e+06	8066.46	8	37	0.00510909	0.0345708	0	-2.63171	4.3	0.13975	0.12595	3.00282	1.77727e-06	3.36342e-06	2.5869e-06	2.00146e-06	2.93897e-06	3.24835e-06	0.155884	0.0975088	0.409809	7.54545e-06	3.18124e-05	2.82141e-05	2.8709e-05	7.34153e-06	3.92085e-06	6.76332	0.208621	6.76654	1.76678	8.06646e+06	2.61509e+08	2.61633e+08	-88.2332	0.0000000E+000	0.0000000E+000	0.0000000E+000	88.2332	0.0000000E+000	0.0000000E+000	0.0000000E+000	-88.2332	0.0000000E+000	0.0000000E+000	0.0000000E+000	-1.76678	0.0000000E+000	0.0000000E+000	0.0000000E+000	1.76678	32.4192	88.2332	-0.00105533
66.3374	0.145892	0.00243794	0.145912	-0.957357	18087.8	0.000124189	-0.78979	984099	274.727	12	37	0.00509745	0.034935	0	-4.15801	4.3	0.315561	0.183031	6.16867	5.87754e-06	1.01685e-05	3.29491e-06	5.12486e-06	5.33539e-06	5.4468e-06	0.109754	0.0228945	0.617349	6.36437e-06	2.70444e-05	8.13502e-06	2.36292e-05	5.67165e-06	2.45043e-06	6.85247	0.114509	6.85343	0.957357	274727	1.64403e+07	1.64426e+07	-89.0426	0.0000000E+000	0.0000000E+000	0.0000000E+000	89.0426	0.0000000E+000	0.0000000E+000	0.0000000E+000	-89.0426	0.0000000E+000	0.0000000E+000	0.0000000E+000	-0.957357	0.0000000E+000	0.0000000E+000	0.0000000E+000	0.957357	59.8423	89.0426	-0.000283452
1068.29	0.139391	0.0127697	0.139975	-5.23428	24428.5	9.07474e-05	-0.828204	11666.7	97.0978	16	37	0.00509484	0.0363982	0	-5.6295	4.3	0.292777	0.196959	6.10348	5.60251e-06	3.38373e-06	6.17047e-06	4.17917e-06	6.22098e-06	6.93434e-06	0.0385467	0.0960053	0.596835	6.49917e-06	6.31095e-06	6.15603e-06	5.59721e-06	3.8209e-06	3.69988e-06	7.11435	0.651749	7.14414	5.23428	97097.8	1.0599e+06	1.06434e+06	-84.7657	0.0000000E+000	0.0000000E+000	0.0000000E+000	84.7657	0.0000000E+000	0.0000000E+000	0.0000000E+000	-84.7657	0.0000000E+000	0.0000000E+000	0.0000000E+000	-5.23428	0.0000000E+000	0.0000000E+000	0.0000000E+000	5.23428	10.9158	84.7657	-0.000327579
17211.6	0.101269	0.0156858	0.102477	-8.80466	30724.1	0.000231131	-0.259015	589.512	13.8118	20	37	0.00517799	0.0505283	0	-7.15216	4.3	0.307685	0.101169	6.02345	7.49923e-06	8.30017e-06	3.29899e-06	4.91814e-06	4.23669e-06	7.07815e-06	0.0930976	0.0175771	0.420463	2.97183e-06	4.53647e-05	3.4281e-06	6.41773e-06	6.42866e-06	3.95303e-06	9.64329	1.49366	9.75828	8.80466	13811.8	89171	90234.3	-81.1953	0.0000000E+000	0.0000000E+000	0.0000000E+000	81.1953	0.0000000E+000	0.0000000E+000	0.0000000E+000	-81.1953	0.0000000E+000	0.0000000E+000	0.0000000E+000	-8.80466	0.0000000E+000	0.0000000E+000	0.0000000E+000	8.80466	6.45613	81.1953	-2.3147e-05
0.0199946	0.223203	0.0139787	0.223641	-3.58363	37010.7	0.000132959	-0.755311	5.69429e+08	2.22471e+06	23	38	0.00508757	0.0227489	0	-8.61627	4.3	0.131534	0.149348	0.25407	2.56634e-06	5.21073e-06	1.5328e-06	1.96304e-06	1.27975e-06	5.91085e-07	0.171792	0.146873	0.748099	8.95954e-06	2.3549e-05	1.32881e-05	1.55497e-05	1.33848e-05	1.47257e-05	4.46272	0.27949	4.47146	3.58363	2.22471e+09	3.55228e+10	3.55924e+10	-86.4164	0.0000000E+000	0.0000000E+000	0.0000000E+000	86.4164	0.0000000E+000	0.0000000E+000	0.0000000E+000	-86.4164	0.0000000E+000	0.0000000E+000	0.0000000E+000	-3.58363	0.0000000E+000	0.0000000E+000	0.0000000E+000	3.58363	15.9674	86.4164	-0.0467159
[...]
0.0252177	0.22721	0.0169005	0.227838	-4.25397	73052.3	0.000120573	-0.840846	3.73436e+08	2.05476e+06	46	38	0.00539262	0.0236687	0	-16.9022	4.3	0.125708	0.121653	0.247532	2.36405e-06	4.93867e-06	1.71446e-06	3.07753e-06	7.6631e-07	7.71048e-07	0.269783	0.135852	0.601177	1.35476e-05	2.49673e-05	1.13611e-05	2.08338e-05	4.68506e-05	2.07202e-05	4.37699	0.325572	4.38908	4.25397	2.05476e+09	2.76243e+10	2.77006e+10	-85.746	0.0000000E+000	0.0000000E+000	0.0000000E+000	85.746	0.0000000E+000	0.0000000E+000	0.0000000E+000	-85.746	0.0000000E+000	0.0000000E+000	0.0000000E+000	-4.25397	0.0000000E+000	0.0000000E+000	0.0000000E+000	4.25397	13.444	85.746	-0.0732228
0.406108	0.16966	0.0173132	0.170541	-5.82666	78229.1	0.000112262	-0.805716	2.26361e+07	233291	50	37	0.00525451	0.0308108	0	-17.9956	4.3	0.120228	0.0749648	0.867593	1.07956e-06	4.86877e-06	1.12764e-06	2.54701e-06	1.32748e-06	1.67171e-06	0.120641	0.142845	0.354348	1.10493e-05	1.88263e-05	9.2875e-06	2.42779e-05	5.10634e-06	8.27199e-06	5.8334	0.595277	5.86369	5.82666	2.33291e+08	2.28612e+09	2.298e+09	-84.1733	0.0000000E+000	0.0000000E+000	0.0000000E+000	84.1733	0.0000000E+000	0.0000000E+000	0.0000000E+000	-84.1733	0.0000000E+000	0.0000000E+000	0.0000000E+000	-5.82666	0.0000000E+000	0.0000000E+000	0.0000000E+000	5.82666	9.79945	84.1733	0.000589664
6.54313	0.159991	0.00361156	0.160032	-1.29315	84526.4	0.000128802	-0.807378	6.73503e+06	3430.19	54	37	0.00541399	0.0338308	0	-19.4174	4.3	0.170511	0.113383	4.37359	2.74254e-06	2.96912e-06	5.10267e-06	4.58835e-06	3.43978e-06	2.53615e-06	0.16918	0.0512908	0.483199	3.12839e-05	3.83884e-05	4.2923e-06	2.44481e-05	4.42524e-06	1.10449e-05	6.24718	0.141021	6.24877	1.29315	3.4302e+06	1.51956e+08	1.51995e+08	-88.7068	0.0000000E+000	0.0000000E+000	0.0000000E+000	88.7068	0.0000000E+000	0.0000000E+000	0.0000000E+000	-88.7068	0.0000000E+000	0.0000000E+000	0.0000000E+000	-1.29315	0.0000000E+000	0.0000000E+000	0.0000000E+000	1.29315	44.2996	88.7068	-6.71863e-06
105.438	0.157305	0.00405151	0.157357	-1.47537	90825.1	0.000113862	-0.888691	372567	246.982	58	37	0.0052366	0.0332785	0	-20.8555	4.3	0.280106	0.176611	6.06943	4.52822e-06	5.4304e-06	6.89111e-06	5.45488e-06	5.43108e-06	5.7922e-06	0.113631	0.0213283	0.637844	5.20703e-06	2.63618e-05	8.15743e-06	2.4648e-05	2.82334e-06	3.86167e-06	6.35287	0.163623	6.35497	1.47537	246982	9.58939e+06	9.59257e+06	-88.5246	0.0000000E+000	0.0000000E+000	0.0000000E+000	88.5246	0.0000000E+000	0.0000000E+000	0.0000000E+000	-88.5246	0.0000000E+000	0.0000000E+000	0.0000000E+000	-1.47537	0.0000000E+000	0.0000000E+000	0.0000000E+000	1.47537	38.8262	88.5246	-0.000282299
0.0199946	0.23083	0.014403	0.231279	-3.57042	95529.4	0.000126022	-0.776891	5.52657e+08	2.14332e+06	60	38	0.00539507	0.0233271	0	-21.8801	4.3	0.121776	0.134126	0.230154	1.8131e-06	5.52693e-06	7.60544e-07	2.54647e-06	6.83836e-07	1.0474e-06	0.170573	0.197342	0.643787	8.14807e-06	1.97962e-05	4.76987e-06	2.41725e-05	1.18352e-05	1.69582e-05	4.31539	0.269265	4.32378	3.57042	2.14332e+09	3.43501e+10	3.44169e+10	-86.4296	0.0000000E+000	0.0000000E+000	0.0000000E+000	86.4296	0.0000000E+000	0.0000000E+000	0.0000000E+000	-86.4296	0.0000000E+000	0.0000000E+000	0.0000000E+000	-3.57042	0.0000000E+000	0.0000000E+000	0.0000000E+000	3.57042	16.0266	86.4296	-0.0328637

File: 240507-EIS-Cloth-1p5M_FeCl2FeCl3-1M_HCl-Wamup_10mLmin-4xFlowRate-20mHz_10ppd_03_PEIS_C15.mpt
EC-Lab ASCII FILE
Nb header lines : 75

Potentio Electrochemical Impedance Spectroscopy

Run on channel : 15 (SN 19485)
User :
Electrode connection : standard
Potential control : Ewe
Ewe ctrl range : min = -1.00 V, max = 1.00 V
Ewe,I filtering : 50 kHz
Safety Limits :
	Do not start on E overload
Channel : Grounded
Acquisition started on : 05/08/2024 12:03:59.706
Loaded Setting File :  C:\Data\mathias\IRFB\240503-EIS-Felt-1p5M_FeCl2FeCl3-1M_HCl-Wamup_10mLmin-4xFlowRate-20mHz_10ppd.mps
Saved on :
	File : 240507-EIS-Cloth-1p5M_FeCl2FeCl3-1M_HCl-Wamup_10mLmin-4xFlowRate-20mHz_10ppd_03_PEIS_C15.mpr
	Directory : C:\Data\mathias\IRFB\
	Host : 192.168.0.1
Device : VMP-300 (SN 0826)
Address : USB
EC-Lab for windows v11.52 (software)
Internet server v11.52 (firmware)
Command interpretor v11.52 (firmware)
Electrode material :
Initial state :
Electrolyte :
Comments :
Cable : special
Electrode surface area : 0.001 cm²
Characteristic mass : 0.001 g
Equivalent Weight : 0.000 g/eq.
Density : 0.000 g/cm3
Volume (V) : 0.001 cm³
Record EIS quality indicators
Cycle Definition : Charge/Discharge alternance
External device configuration :
   device type : Other
   device name : Other
   Analog OUT :
      mode : E/V
      unit : KNF Pump/ml/min
      max : 120.000 at 5.000 V
      min : 0.000 at 0.000 V
      current : 4.300
Mode                Single sine
E (V)               0.0000
vs.                 Eoc
tE (h:m:s)          0:10:0.0000
record              0
dI                  0.000
unit dI             mA
dt (s)              0.000
fi                  220.000
unit fi             kHz
ff                  20.000
unit ff             mHz
Nd                  10
Points              per decade
spacing             Logarithmic
Va (mV)             5.0
pw                  0.10
Na                  3
corr                0
E range min (V)     -1.000
E range max (V)     1.000
I Range             Auto
Bandwidth           8
nc cycles           2
goto Ns'            0
nr cycles           0
inc. cycle          0

freq/Hz	Re(Z)/Ohm	-Im(Z)/Ohm	|Z|/Ohm	Phase(Z)/deg	time/s	<Ewe>/V	<I>/mA	Cs/µF	Cp/µF	cycle number	I Range	|Ewe|/V	|I|/A	Ns	(Q-Qo)/mA.h	Analog OUT/V	THD Ewe/%	NSD Ewe/%	NSR Ewe/%	|Ewe h2|/V	|Ewe h3|/V	|Ewe h4|/V	|Ewe h5|/V	|Ewe h6|/V	|Ewe h7|/V	THD I/%	NSD I/%	NSR I/%	|I h2|/A	|I h3|/A	|I h4|/A	|I h5|/A	|I h6|/A	|I h7|/A	Re(Y)/Ohm-1	Im(Y)/Ohm-1	|Y|/Ohm-1	Phase(Y)/deg	Re(C)/nF	Im(C)/nF	|C|/nF	Phase(C)/deg	Re(M)	Im(M)	|M|	Phase(M)/deg	Re(Permittivity)	Im(Permittivity)	|Permittivity|	Phase(Permittivity)/deg	Re(Resistivity)/Ohm.cm	Im(Resistivity)/Ohm.cm	|Resistivity|/Ohm.cm	Phase(Resistivity)/deg	Re(Conductivity)/mS/cm	Im(Conductivity)/mS/cm	|Conductivity|/mS/cm	Phase(Conductivity)/deg	Tan(Delta)	Loss Angle(Delta)/deg	dq/mA.h
220003	0.0813479	-0.0222663	0.0843402	15.3079	96131.2	0.000183559	-0.361563	-32.4895	-2.2645	1	37	0.00299587	0.0355213	0	-0.141737	4.3	-1	-1	-1	0	0	0	0	0	0	-1	-1	-1	0	0	0	0	0	0	11.4361	-3.13025	11.8567	-15.3079	-2264.5	8273.12	8577.44	-105.308	0.0000000E+000	0.0000000E+000	0.0000000E+000	105.308	0.0000000E+000	0.0000000E+000	0.0000000E+000	-105.308	0.0000000E+000	0.0000000E+000	0.0000000E+000	15.3079	0.0000000E+000	0.0000000E+000	0.0000000E+000	-15.3079	3.6534	74.6921	-0.141737
8590.41	0.112737	0.021332	0.114738	-10.7148	96147.3	7.82395e-05	-0.962837	868.511	30.0211	1	37	0.00527456	0.0459707	0	-0.143905	4.3	0.27553	0.103401	6.04938	2.34653e-06	8.67012e-06	3.67815e-06	6.565e-06	4.16043e-06	4.37572e-06	0.105512	0.0598159	0.46029	1.2853e-05	4.50192e-05	5.16544e-06	8.64185e-06	4.43471e-06	3.25851e-06	8.56359	1.62039	8.71554	10.7148	30021.1	158658	161473	-79.2852	0.0000000E+000	0.0000000E+000	0.0000000E+000	79.2852	0.0000000E+000	0.0000000E+000	0.0000000E+000	-79.2852	0.0000000E+000	0.0000000E+000	0.0000000E+000	-10.7148	0.0000000E+000	0.0000000E+000	0.0000000E+000	10.7148	5.28489	79.2852	-0.000455057
335.537	0.155306	0.00815169	0.15552	-3.00458	96165.3	7.03731e-05	-0.910931	58187.8	159.867	1	37	0.00515947	0.0331757	0	-0.148436	4.3	0.351493	0.137654	6.06943	1.0745e-05	5.13166e-06	3.90273e-06	2.14665e-06	6.42301e-06	7.45291e-06	0.0851655	0.017275	0.629259	4.55303e-06	2.24537e-05	7.80497e-06	1.21251e-05	1.90891e-06	5.59314e-06	6.42122	0.337037	6.43006	3.00458	159867	3.04577e+06	3.04996e+06	-86.9954	0.0000000E+000	0.0000000E+000	0.0000000E+000	86.9954	0.0000000E+000	0.0000000E+000	0.0000000E+000	-86.9954	0.0000000E+000	0.0000000E+000	0.0000000E+000	-3.00458	0.0000000E+000	0.0000000E+000	0.0000000E+000	3.00458	19.052	86.9954	-0.000251507
13.1083	0.160407	0.00288041	0.160433	-1.02874	96180.8	8.81004e-05	-0.973065	4.21522e+06	1358.76	1	37	0.00541225	0.0337353	0	-0.152253	4.3	0.442537	0.144098	4.06053	2.86154e-06	6.40777e-06	6.5746e-06	1.92473e-05	4.95515e-06	1.45801e-06	0.137107	0.115429	0.447505	7.53534e-06	2.50079e-05	2.92322e-05	2.25708e-05	6.1749e-06	3.14976e-06	6.23212	0.11191	6.23313	1.02874	1.35875e+06	7.56678e+07	7.568e+07	-88.9713	0.0000000E+000	0.0000000E+000	0.0000000E+000	88.9713	0.0000000E+000	0.0000000E+000	0.0000000E+000	-88.9713	0.0000000E+000	0.0000000E+000	0.0000000E+000	-1.02874	0.0000000E+000	0.0000000E+000	0.0000000E+000	1.02874	55.6889	88.9713	-0.000324185
0.511825	0.169543	0.0145904	0.17017	-4.91859	96241.6	0.000110426	-0.854247	2.13124e+07	156675	1	37	0.0054108	0.0317965	0	-0.16415	4.3	0.117438	0.0585419	0.90866	1.29993e-06	5.20128e-06	1.44362e-06	2.11889e-06	1.19292e-06	1.36109e-06	0.111548	0.148175	0.338533	1.12689e-05	2.30065e-05	7.37339e-06	2.0826e-05	4.93557e-06	2.58325e-06	5.85485	0.503851	5.87649	4.91859	1.56675e+08	1.8206e+09	1.82733e+09	-85.0814	0.0000000E+000	0.0000000E+000	0.0000000E+000	85.0814	0.0000000E+000	0.0000000E+000	0.0000000E+000	-85.0814	0.0000000E+000	0.0000000E+000	0.0000000E+000	-4.91859	0.0000000E+000	0.0000000E+000	0.0000000E+000	4.91859	11.6202	85.0814	-0.0010868
0.0199946	0.230489	0.0142905	0.230932	-3.54784	97715	0.000122196	-0.788751	5.57006e+08	2.13298e+06	1	38	0.00539789	0.0233744	0	-0.5042	4.3	0.133928	0.114002	0.228933	3.11391e-06	5.70975e-06	1.28584e-06	2.47287e-06	9.57337e-07	6.15422e-07	0.151991	0.157387	0.61723	9.663e-06	1.57049e-05	6.03624e-06	2.07526e-05	1.02298e-05	1.65568e-05	4.32198	0.267966	4.33028	3.54784	2.13298e+09	3.44025e+10	3.44686e+10	-86.4522	0.0000000E+000	0.0000000E+000	0.0000000E+000	86.4522	0.0000000E+000	0.0000000E+000	0.0000000E+000	-86.4522	0.0000000E+000	0.0000000E+000	0.0000000E+000	-3.54784	0.0000000E+000	0.0000000E+000	0.0000000E+000	3.54784	16.1288	86.4522	-0.0968931
10837.3	0.10884	0.0198338	0.110633	-10.3276	97731.3	0.000206637	-0.361563	740.445	23.798	2	37	0.00516907	0.0467229	0	-0.502664	4.3	0.255279	0.242059	6.09717	6.34292e-06	5.12141e-06	4.85908e-06	5.3877e-06	5.10839e-06	2.97008e-06	0.112652	0.0347122	0.449533	4.70788e-06	3.19781e-05	3.78601e-06	4.74564e-06	5.20111e-06	4.04419e-05	8.89249	1.62047	9.03893	10.3276	23798	130594	132744	-79.6724	0.0000000E+000	0.0000000E+000	0.0000000E+000	79.6724	0.0000000E+000	0.0000000E+000	0.0000000E+000	-79.6724	0.0000000E+000	0.0000000E+000	0.0000000E+000	-10.3276	0.0000000E+000	0.0000000E+000	0.0000000E+000	10.3276	5.4876	79.6724	-9.43772e-05
[...]
533.464	0.152275	0.0109178	0.152666	-4.10095	99308.5	0.000102994	-0.841641	27326.3	139.753	3	37	0.00532892	0.0349057	0	-0.891971	4.3	0.335775	0.1266	5.95048	6.8302e-06	6.26379e-06	6.03257e-06	7.70488e-06	8.84259e-06	5.79663e-06	0.0659115	0.0196395	0.608596	5.44889e-06	1.40353e-05	7.29975e-06	1.15535e-05	5.0175e-06	8.01129e-06	6.53346	0.468433	6.55023	4.10095	139753	1.94921e+06	1.95421e+06	-85.8991	0.0000000E+000	0.0000000E+000	0.0000000E+000	85.8991	0.0000000E+000	0.0000000E+000	0.0000000E+000	-85.8991	0.0000000E+000	0.0000000E+000	0.0000000E+000	-4.10095	0.0000000E+000	0.0000000E+000	0.0000000E+000	4.10095	13.9475	85.8991	-0.000278547
20.8333	0.158972	0.0026344	0.158994	-0.94939	99324.5	0.000114216	-0.815976	2.89988e+06	796.131	3	37	0.00510255	0.0320928	0	-0.895701	4.3	0.384219	0.140108	6.16315	8.87774e-06	5.19507e-06	4.50426e-06	1.07406e-05	7.62607e-06	5.40752e-06	0.138385	0.200726	0.626635	1.03518e-05	2.9226e-05	5.96271e-06	2.67183e-05	5.83397e-06	1.28616e-05	6.2887	0.104213	6.28956	0.94939	796128	4.80422e+07	4.80487e+07	-89.0506	0.0000000E+000	0.0000000E+000	0.0000000E+000	89.0506	0.0000000E+000	0.0000000E+000	0.0000000E+000	-89.0506	0.0000000E+000	0.0000000E+000	0.0000000E+000	-0.94939	0.0000000E+000	0.0000000E+000	0.0000000E+000	0.94939	60.3446	89.0506	-0.000119019
0.813551	0.166195	0.0110384	0.166562	-3.79992	99365.5	0.000120166	-0.791226	1.77226e+07	77838.4	3	37	0.00510013	0.0306201	0	-0.906351	4.3	0.106049	0.0746271	1.22413	1.98511e-06	3.83001e-06	1.5052e-06	1.39995e-06	1.64259e-06	1.29504e-06	0.116386	0.0823403	0.354061	4.11117e-06	2.14154e-05	3.73949e-06	2.67638e-05	2.55568e-06	3.06942e-06	5.99059	0.397886	6.00379	3.79992	7.78384e+07	1.17194e+09	1.17452e+09	-86.2001	0.0000000E+000	0.0000000E+000	0.0000000E+000	86.2001	0.0000000E+000	0.0000000E+000	0.0000000E+000	-86.2001	0.0000000E+000	0.0000000E+000	0.0000000E+000	-3.79992	0.0000000E+000	0.0000000E+000	0.0000000E+000	3.79992	15.056	86.2001	-0.00459062
0.0317924	0.225283	0.0194502	0.226121	-4.93452	100294	0.000135557	-0.751236	2.57378e+08	1.90432e+06	3	38	0.00508855	0.0225037	0	-1.07259	4.3	0.10887	0.13012	0.281705	2.8311e-06	4.05833e-06	8.03462e-07	1.99843e-06	6.72611e-07	7.95341e-07	0.458103	0.132519	0.467392	9.84442e-06	2.27187e-05	1.34243e-05	7.94739e-05	2.16269e-05	5.38372e-05	4.40603	0.380404	4.42242	4.93452	1.90432e+09	2.20568e+10	2.21389e+10	-85.0655	0.0000000E+000	0.0000000E+000	0.0000000E+000	85.0655	0.0000000E+000	0.0000000E+000	0.0000000E+000	-85.0655	0.0000000E+000	0.0000000E+000	0.0000000E+000	-4.93452	0.0000000E+000	0.0000000E+000	0.0000000E+000	4.93452	11.5825	85.0655	-0.031687
0.0199946	0.229524	0.0141961	0.229962	-3.53924	100842	0.000114295	-0.84876	5.60711e+08	2.13679e+06	3	38	0.00508682	0.0221202	0	-1.2352	4.3	0.140696	0.109664	0.251826	1.68751e-06	6.09665e-06	1.28263e-06	2.23003e-06	8.32699e-07	4.89766e-07	0.196783	0.127786	0.617921	1.28751e-05	2.75689e-05	5.70465e-06	1.60984e-05	1.20033e-05	1.74099e-05	4.34024	0.268444	4.34854	3.53924	2.13679e+09	3.45479e+10	3.46139e+10	-86.4608	0.0000000E+000	0.0000000E+000	0.0000000E+000	86.4608	0.0000000E+000	0.0000000E+000	0.0000000E+000	-86.4608	0.0000000E+000	0.0000000E+000	0.0000000E+000	-3.53924	0.0000000E+000	0.0000000E+000	0.0000000E+000	3.53924	16.1681	86.4608	-0.0988938