Folder: Thesis/Python/ImpedanceDataOld/dual layer tests _vanadium positive side single-tank symmetric cell_1.6 M total vanadium_ve=5cms_choose the cycle number=3

File: dual-layer_AvCarb 1186 carbon cloth + Freudenberg H23 carbon paper.mpt
EC-Lab ASCII FILE
Nb header lines : 66

Potentio Electrochemical Impedance Spectroscopy

Run on channel : 1 (SN 5680)
User :
Electrode connection : standard
Potential control : Ewe
Ewe ctrl range : min = 0.00 V, max = 5.00 V
Ewe,I filtering : <None>
Safety Limits :
	Do not start on E overload
Channel : Floating
Acquisition started on : 06/30/2023 00:59:40.052
Loaded Setting File :  C:\Data\baili\Electrode Combination Tests\20230622\new tests\positive\ELAT_ve5_30mL_EIS_C01.mpr
Saved on :
	File : AvCarb_FrePaper_ve5_30mL_EIS_C01.mpr
	Directory : C:\Data\baili\Electrode Combination Tests\20230622\new tests\positive\
	Host : 192.168.0.1
Device : SP-300 (SN 0955)
Address : 192.168.0.4
EC-Lab for windows v11.46 (software)
Internet server v11.40 (firmware)
Command interpretor v11.46 (firmware)
Electrode material :
Initial state :
Electrolyte :
Comments :
Current amplifier : B-10A5V
Cable : standard
Electrode surface area : 0.001 cm2
Characteristic mass : 0.001 g
Equivalent Weight : 0.000 g/eq.
Density : 0.000 g/cm3
Volume (V) : 0.001 cm3
Cycle Definition : Charge/Discharge alternance
Mode                Single sine
E (V)               0.0000
vs.                 Eoc
tE (h:m:s)          0:00:0.0000
record              0
dI                  0.000
unit dI             mA
dt (s)              0.000
fi                  200.000
unit fi             kHz
ff                  50.000
unit ff             mHz
Nd                  8
Points              per decade
spacing             Logarithmic
Va (mV)             10.0
pw                  0.10
Na                  3
corr                0
E range min (V)     0.000
E range max (V)     5.000
I Range             Auto
Bandwidth           8
nc cycles           3
goto Ns'            0
nr cycles           0
inc. cycle          0

freq/Hz	Re(Z)/Ohm	-Im(Z)/Ohm	|Z|/Ohm	Phase(Z)/deg	time/s	<Ewe>/V	<I>/mA	Cs/uF	Cp/uF	cycle number	I Range	|Ewe|/V	|I|/A	Ns	(Q-Qo)/mA.h	Re(Y)/Ohm-1	Im(Y)/Ohm-1	|Y|/Ohm-1	Phase(Y)/deg	Re(C)/nF	Im(C)/nF	|C|/nF	Phase(C)/deg	Re(M)	Im(M)	|M|	Phase(M)/deg	Re(Permittivity)	Im(Permittivity)	|Permittivity|	Phase(Permittivity)/deg	Re(Resistivity)/Ohm.cm	Im(Resistivity)/Ohm.cm	|Resistivity|/Ohm.cm	Phase(Resistivity)/deg	Re(Conductivity)/mS/cm	Im(Conductivity)/mS/cm	|Conductivity|/mS/cm	Phase(Conductivity)/deg	Tan(Delta)	Loss Angle(Delta)/deg	dq/mA.h
199998	0.123673	-0.0289378	0.127014	13.1695	1.9465	-0.000600988	-21.5776	-27.4998	-1.42745	1	65	0.00975392	0.0767944	0	-0.00555785	7.66611	-1.79376	7.87318	-13.1695	-1427.45	6100.56	6265.33	-103.169	0.0000000E+000	0.0000000E+000	0.0000000E+000	103.169	0.0000000E+000	0.0000000E+000	0.0000000E+000	-103.169	0.0000000E+000	0.0000000E+000	0.0000000E+000	13.1695	0.0000000E+000	0.0000000E+000	0.0000000E+000	-13.1695	-4.27376	-13.1695	-0.00555785
10753.8	0.128514	0.00139416	0.128521	-0.621539	7.70748	-0.000560276	-3.52851	10615.6	1.24917	1	65	0.0102819	0.0800012	0	-0.00964317	7.78035	0.0844037	7.78081	0.621539	1249.16	115148	115155	-89.3785	0.0000000E+000	0.0000000E+000	0.0000000E+000	89.3785	0.0000000E+000	0.0000000E+000	0.0000000E+000	-89.3785	0.0000000E+000	0.0000000E+000	0.0000000E+000	-0.621539	0.0000000E+000	0.0000000E+000	0.0000000E+000	0.621539	92.1802	0.621539	-0.000333497
577.965	0.135058	0.00386669	0.135113	-1.63992	14.9415	-0.000663304	-4.31701	71216.2	58.3261	1	65	0.0104982	0.0776995	0	-0.0179372	7.39818	0.211809	7.40121	1.63992	58326	2.03724e+06	2.03808e+06	-88.3601	0.0000000E+000	0.0000000E+000	0.0000000E+000	88.3601	0.0000000E+000	0.0000000E+000	0.0000000E+000	-88.3601	0.0000000E+000	0.0000000E+000	0.0000000E+000	-1.63992	0.0000000E+000	0.0000000E+000	0.0000000E+000	1.63992	34.9285	1.63992	-0.000489364
31.0636	0.143749	0.00508632	0.143839	-2.02647	21.8059	-0.000654431	-3.68502	1.00731e+06	1259.55	1	65	0.0105022	0.0730132	0	-0.0266514	6.94786	0.245838	6.95221	2.02647	1.25955e+06	3.55975e+07	3.56197e+07	-87.9735	0.0000000E+000	0.0000000E+000	0.0000000E+000	87.9735	0.0000000E+000	0.0000000E+000	0.0000000E+000	-87.9735	0.0000000E+000	0.0000000E+000	0.0000000E+000	-2.02647	0.0000000E+000	0.0000000E+000	0.0000000E+000	2.02647	28.262	2.02647	-0.00103905
1.66934	0.153264	0.00239781	0.153283	-0.896318	31.371	-0.000659692	-4.23301	3.97613e+07	9729.8	1	37	0.0105017	0.0685118	0	-0.0391836	6.5231	0.102054	6.5239	0.896318	9.72979e+06	6.21913e+08	6.21989e+08	-89.1037	0.0000000E+000	0.0000000E+000	0.0000000E+000	89.1037	0.0000000E+000	0.0000000E+000	0.0000000E+000	-89.1037	0.0000000E+000	0.0000000E+000	0.0000000E+000	-0.896318	0.0000000E+000	0.0000000E+000	0.0000000E+000	0.896318	63.9183	0.896318	-0.00376854
0.0897631	0.156902	0.00118203	0.156907	-0.431632	160.972	-0.000635218	-3.90093	1.50001e+09	85127	1	37	0.0105016	0.0669288	0	-0.154809	6.37302	0.0480115	6.3732	0.431632	8.51271e+07	1.12997e+10	1.13e+10	-89.5684	0.0000000E+000	0.0000000E+000	0.0000000E+000	89.5684	0.0000000E+000	0.0000000E+000	0.0000000E+000	-89.5684	0.0000000E+000	0.0000000E+000	0.0000000E+000	-0.431632	0.0000000E+000	0.0000000E+000	0.0000000E+000	0.431632	132.74	0.431632	-0.0156948
25840.6	0.124105	-0.00151336	0.124114	0.698642	274.841	-0.000549501	-2.80727	-4069.81	-0.605086	2	65	0.0109017	0.087836	0	-0.257576	8.0565	-0.0982427	8.0571	-0.698642	-605.083	49620.8	49624.5	-90.6986	0.0000000E+000	0.0000000E+000	0.0000000E+000	90.6986	0.0000000E+000	0.0000000E+000	0.0000000E+000	-90.6986	0.0000000E+000	0.0000000E+000	0.0000000E+000	0.698642	0.0000000E+000	0.0000000E+000	0.0000000E+000	-0.698642	-82.0061	-0.698642	-0.00142623
1388.67	0.130178	0.00342073	0.130223	-1.50524	281.287	-0.000644365	-3.55348	33504.5	23.1189	2	65	0.0101027	0.0775803	0	-0.264323	7.67651	0.201719	7.67916	1.50524	23119	879803	880106	-88.4948	0.0000000E+000	0.0000000E+000	0.0000000E+000	88.4948	0.0000000E+000	0.0000000E+000	0.0000000E+000	-88.4948	0.0000000E+000	0.0000000E+000	0.0000000E+000	-1.50524	0.0000000E+000	0.0000000E+000	0.0000000E+000	1.50524	38.0555	1.50524	-0.000385073
74.6414	0.13751	0.00477716	0.137593	-1.98968	288.208	-0.000657395	-3.6403	446345	538.041	2	65	0.0100764	0.0732334	0	-0.271543	7.26341	0.252334	7.26779	1.98968	538041	1.54875e+07	1.54968e+07	-88.0103	0.0000000E+000	0.0000000E+000	0.0000000E+000	88.0103	0.0000000E+000	0.0000000E+000	0.0000000E+000	-88.0103	0.0000000E+000	0.0000000E+000	0.0000000E+000	-1.98968	0.0000000E+000	0.0000000E+000	0.0000000E+000	1.98968	28.785	1.98968	-0.000491438
4.01052	0.149235	0.00248364	0.149256	-0.953453	295.381	-0.000647637	-3.96992	1.59783e+07	4424.29	2	37	0.0100806	0.0675391	0	-0.277036	6.69896	0.111487	6.69989	0.953453	4.42429e+06	2.65844e+08	2.65881e+08	-89.0465	0.0000000E+000	0.0000000E+000	0.0000000E+000	89.0465	0.0000000E+000	0.0000000E+000	0.0000000E+000	-89.0465	0.0000000E+000	0.0000000E+000	0.0000000E+000	-0.953453	0.0000000E+000	0.0000000E+000	0.0000000E+000	0.953453	60.0874	0.953453	0.000167273
0.215779	0.154338	0.00236439	0.154357	-0.877675	349.657	-0.000665232	-3.80558	3.11954e+08	73194.7	2	37	0.0100799	0.0653028	0	-0.327917	6.47775	0.0992359	6.47851	0.877675	7.31949e+07	4.77787e+09	4.77843e+09	-89.1223	0.0000000E+000	0.0000000E+000	0.0000000E+000	89.1223	0.0000000E+000	0.0000000E+000	0.0000000E+000	-89.1223	0.0000000E+000	0.0000000E+000	0.0000000E+000	-0.877675	0.0000000E+000	0.0000000E+000	0.0000000E+000	0.877675	65.2762	0.877675	-0.00603165
[...]
9.64507	0.146064	0.00344261	0.146104	-1.35017	561.693	-0.000661291	-3.56626	4.79322e+06	2661.2	3	37	0.0103099	0.0705655	0	-0.593182	6.84253	0.161273	6.84443	1.35017	2.66119e+06	1.1291e+08	1.12941e+08	-88.6498	0.0000000E+000	0.0000000E+000	0.0000000E+000	88.6498	0.0000000E+000	0.0000000E+000	0.0000000E+000	-88.6498	0.0000000E+000	0.0000000E+000	0.0000000E+000	-1.35017	0.0000000E+000	0.0000000E+000	0.0000000E+000	1.35017	42.4282	1.35017	-0.000539036
0.518689	0.150456	0.00321398	0.15049	-1.22374	584.673	-0.000649698	-3.53546	9.54707e+07	43545	3	37	0.0103081	0.0684968	0	-0.611015	6.64343	0.141914	6.64494	1.22374	4.35449e+07	2.03847e+09	2.03894e+09	-88.7763	0.0000000E+000	0.0000000E+000	0.0000000E+000	88.7763	0.0000000E+000	0.0000000E+000	0.0000000E+000	-88.7763	0.0000000E+000	0.0000000E+000	0.0000000E+000	-1.22374	0.0000000E+000	0.0000000E+000	0.0000000E+000	1.22374	46.813	1.22374	-0.00173701
149300	0.118546	-0.0195217	0.120143	9.35129	808.019	-0.000540982	-2.62505	-54.6062	-1.44172	4	65	0.0107455	0.0894394	0	-0.793211	8.21281	-1.35245	8.32342	-9.35129	-1441.72	8754.9	8872.81	-99.3513	0.0000000E+000	0.0000000E+000	0.0000000E+000	99.3513	0.0000000E+000	0.0000000E+000	0.0000000E+000	-99.3513	0.0000000E+000	0.0000000E+000	0.0000000E+000	9.35129	0.0000000E+000	0.0000000E+000	0.0000000E+000	-9.35129	-6.07254	-9.35129	-0.000581632
8023.44	0.123359	0.00198056	0.123375	-0.919817	813.852	-0.000648224	-3.2889	10015.5	2.58103	4	65	0.0101903	0.0825965	0	-0.797342	8.10433	0.130117	8.10537	0.919817	2581.02	160759	160780	-89.0802	0.0000000E+000	0.0000000E+000	0.0000000E+000	89.0802	0.0000000E+000	0.0000000E+000	0.0000000E+000	-89.0802	0.0000000E+000	0.0000000E+000	0.0000000E+000	-0.919817	0.0000000E+000	0.0000000E+000	0.0000000E+000	0.919817	62.2851	0.919817	-0.000650448
431.242	0.130068	0.0037402	0.130122	-1.64713	820.686	-0.000664535	-3.39306	98674.3	81.5259	4	65	0.0103563	0.0795891	0	-0.80482	7.68194	0.2209	7.68512	1.64713	81526	2.83511e+06	2.83628e+06	-88.3529	0.0000000E+000	0.0000000E+000	0.0000000E+000	88.3529	0.0000000E+000	0.0000000E+000	0.0000000E+000	-88.3529	0.0000000E+000	0.0000000E+000	0.0000000E+000	-1.64713	0.0000000E+000	0.0000000E+000	0.0000000E+000	1.64713	34.7756	1.64713	-0.000904503
23.1963	0.138814	0.00464929	0.138892	-1.91829	827.602	-0.000648326	-3.14395	1.47576e+06	1653.62	4	65	0.0103434	0.0744711	0	-0.811994	7.19582	0.241009	7.19985	1.91829	1.65362e+06	4.93722e+07	4.93998e+07	-88.0817	0.0000000E+000	0.0000000E+000	0.0000000E+000	88.0817	0.0000000E+000	0.0000000E+000	0.0000000E+000	-88.0817	0.0000000E+000	0.0000000E+000	0.0000000E+000	-1.91829	0.0000000E+000	0.0000000E+000	0.0000000E+000	1.91829	29.857	1.91829	-0.00113616
1.24562	0.147054	0.00260956	0.147077	-1.01664	839.035	-0.000648589	-3.43197	4.8963e+07	15414	4	37	0.0103495	0.0703681	0	-0.82483	6.7981	0.120637	6.79917	1.01664	1.54139e+07	8.68606e+08	8.68742e+08	-88.9834	0.0000000E+000	0.0000000E+000	0.0000000E+000	88.9834	0.0000000E+000	0.0000000E+000	0.0000000E+000	-88.9834	0.0000000E+000	0.0000000E+000	0.0000000E+000	-1.01664	0.0000000E+000	0.0000000E+000	0.0000000E+000	1.01664	56.3519	1.01664	-0.00404149
0.215779	0.15101	0.00233072	0.151028	-0.884244	886.291	-0.000635742	-3.43922	3.16461e+08	75367.5	4	37	0.0103471	0.068511	0	-0.877943	6.62049	0.102182	6.62128	0.884244	7.53678e+07	4.88316e+09	4.88374e+09	-89.1158	0.0000000E+000	0.0000000E+000	0.0000000E+000	89.1158	0.0000000E+000	0.0000000E+000	0.0000000E+000	-89.1158	0.0000000E+000	0.0000000E+000	0.0000000E+000	-0.884244	0.0000000E+000	0.0000000E+000	0.0000000E+000	0.884244	64.7912	0.884244	-0.0236954

File: dual-layer_ELAT-H carbon cloth + Freudenberg H23 carbon paper.mpt
EC-Lab ASCII FILE
Nb header lines : 66

Potentio Electrochemical Impedance Spectroscopy

Run on channel : 1 (SN 5680)
User :
Electrode connection : standard
Potential control : Ewe
Ewe ctrl range : min = 0.00 V, max = 5.00 V
Ewe,I filtering : <None>
Safety Limits :
	Do not start on E overload
Channel : Floating
Acquisition started on : 06/29/2023 23:52:53.281
Loaded Setting File :  C:\Data\baili\Electrode Combination Tests\20230622\new tests\positive\ELATvers_ve5_30mL_EIS_C01.mpr
Saved on :
	File : ELAT_FrePaper_ve5_30mL_EIS_C01.mpr
	Directory : C:\Data\baili\Electrode Combination Tests\20230622\new tests\positive\
	Host : 192.168.0.1
Device : SP-300 (SN 0955)
Address : 192.168.0.4
EC-Lab for windows v11.46 (software)
Internet server v11.40 (firmware)
Command interpretor v11.46 (firmware)
Electrode material :
Initial state :
Electrolyte :
Comments :
Current amplifier : B-10A5V
Cable : standard
Electrode surface area : 0.001 cm2
Characteristic mass : 0.001 g
Equivalent Weight : 0.000 g/eq.
Density : 0.000 g/cm3
Volume (V) : 0.001 cm3
Cycle Definition : Charge/Discharge alternance
Mode                Single sine
E (V)               0.0000
vs.                 Eoc
tE (h:m:s)          0:00:0.0000
record              0
dI                  0.000
unit dI             mA
dt (s)              0.000
fi                  200.000
unit fi             kHz
ff                  50.000
unit ff             mHz
Nd                  12
Points              per decade
spacing             Logarithmic
Va (mV)             10.0
pw                  0.10
Na                  3
corr                0
E range min (V)     0.000
E range max (V)     5.000
I Range             Auto
Bandwidth           8
nc cycles           3
goto Ns'            0
nr cycles           0
inc. cycle          0

freq/Hz	Re(Z)/Ohm	-Im(Z)/Ohm	|Z|/Ohm	Phase(Z)/deg	time/s	<Ewe>/V	<I>/mA	Cs/uF	Cp/uF	cycle number	I Range	|Ewe|/V	|I|/A	Ns	(Q-Qo)/mA.h	Re(Y)/Ohm-1	Im(Y)/Ohm-1	|Y|/Ohm-1	Phase(Y)/deg	Re(C)/nF	Im(C)/nF	|C|/nF	Phase(C)/deg	Re(M)	Im(M)	|M|	Phase(M)/deg	Re(Permittivity)	Im(Permittivity)	|Permittivity|	Phase(Permittivity)/deg	Re(Resistivity)/Ohm.cm	Im(Resistivity)/Ohm.cm	|Resistivity|/Ohm.cm	Phase(Resistivity)/deg	Re(Conductivity)/mS/cm	Im(Conductivity)/mS/cm	|Conductivity|/mS/cm	Phase(Conductivity)/deg	Tan(Delta)	Loss Angle(Delta)/deg	dq/mA.h
199998	0.126075	-0.0238142	0.128305	10.6965	1.94649	0.000282167	-13.8834	-33.4162	-1.15118	1	65	0.00969311	0.0755475	0	-0.00276193	7.65851	-1.44661	7.79394	-10.6965	-1151.18	6094.51	6202.28	-100.697	0.0000000E+000	0.0000000E+000	0.0000000E+000	100.697	0.0000000E+000	0.0000000E+000	0.0000000E+000	-100.697	0.0000000E+000	0.0000000E+000	0.0000000E+000	10.6965	0.0000000E+000	0.0000000E+000	0.0000000E+000	-10.6965	-5.29412	-10.6965	-0.00276193
16395.1	0.131855	0.00185728	0.131868	-0.807003	9.43648	0.000288915	3.60454	5226.7	1.03682	1	65	0.0102735	0.0779074	0	0.00580626	7.58258	0.106807	7.58333	0.807003	1036.82	73607.6	73614.9	-89.193	0.0000000E+000	0.0000000E+000	0.0000000E+000	89.193	0.0000000E+000	0.0000000E+000	0.0000000E+000	-89.193	0.0000000E+000	0.0000000E+000	0.0000000E+000	-0.807003	0.0000000E+000	0.0000000E+000	0.0000000E+000	0.807003	70.9936	0.807003	0.000591009
1343.71	0.139863	0.00552151	0.139972	-2.26075	18.439	0.000202757	3.00179	21451.4	33.3805	1	65	0.0102388	0.0731488	0	0.0125467	7.13875	0.281824	7.14431	2.26075	33380.5	845544	846202	-87.7392	0.0000000E+000	0.0000000E+000	0.0000000E+000	87.7392	0.0000000E+000	0.0000000E+000	0.0000000E+000	-87.7392	0.0000000E+000	0.0000000E+000	0.0000000E+000	-2.26075	0.0000000E+000	0.0000000E+000	0.0000000E+000	2.26075	25.3305	2.26075	0.000839015
110.105	0.148716	0.00555517	0.14882	-2.13924	27.4376	0.000223075	2.90807	260204	362.565	1	65	0.0102723	0.0690251	0	0.0192133	6.71485	0.250827	6.71953	2.13924	362565	9.70616e+06	9.71293e+06	-87.8608	0.0000000E+000	0.0000000E+000	0.0000000E+000	87.8608	0.0000000E+000	0.0000000E+000	0.0000000E+000	-87.8608	0.0000000E+000	0.0000000E+000	0.0000000E+000	-2.13924	0.0000000E+000	0.0000000E+000	0.0000000E+000	2.13924	26.7708	2.13924	0.000757157
9.02139	0.161116	0.0040917	0.161168	-1.45477	36.7705	0.000202496	2.37061	4.31164e+06	2779.03	1	37	0.0102749	0.0637526	0	0.0260938	6.2027	0.157524	6.2047	1.45477	2.77903e+06	1.09428e+08	1.09463e+08	-88.5452	0.0000000E+000	0.0000000E+000	0.0000000E+000	88.5452	0.0000000E+000	0.0000000E+000	0.0000000E+000	-88.5452	0.0000000E+000	0.0000000E+000	0.0000000E+000	-1.45477	0.0000000E+000	0.0000000E+000	0.0000000E+000	1.45477	39.3763	1.45477	0.000718524
0.73982	0.165111	0.00390955	0.165158	-1.35641	59.6161	0.000223823	2.43802	5.50259e+07	30833.5	1	37	0.0102754	0.0622155	0	0.0436062	6.05312	0.143327	6.05482	1.35641	3.08336e+07	1.30219e+09	1.30255e+09	-88.6436	0.0000000E+000	0.0000000E+000	0.0000000E+000	88.6436	0.0000000E+000	0.0000000E+000	0.0000000E+000	-88.6436	0.0000000E+000	0.0000000E+000	0.0000000E+000	-1.35641	0.0000000E+000	0.0000000E+000	0.0000000E+000	1.35641	42.2328	1.35641	0.00210079
0.0606438	0.168129	0.00156193	0.168136	-0.532266	328.72	0.000221194	2.4569	1.68025e+09	145002	1	37	0.0102734	0.0611016	0	0.22125	5.94732	0.055251	5.94757	0.532266	1.45002e+08	1.56083e+10	1.5609e+10	-89.4677	0.0000000E+000	0.0000000E+000	0.0000000E+000	89.4677	0.0000000E+000	0.0000000E+000	0.0000000E+000	-89.4677	0.0000000E+000	0.0000000E+000	0.0000000E+000	-0.532266	0.0000000E+000	0.0000000E+000	0.0000000E+000	0.532266	107.642	0.532266	0.0551921
24087	0.127285	0.000354238	0.127286	-0.159455	398.206	0.000327017	3.1924	18652.8	0.144468	2	65	0.010518	0.0826332	0	0.301333	7.8563	0.0218642	7.85633	0.159455	144.468	51910.6	51910.8	-89.8405	0.0000000E+000	0.0000000E+000	0.0000000E+000	89.8405	0.0000000E+000	0.0000000E+000	0.0000000E+000	-89.8405	0.0000000E+000	0.0000000E+000	0.0000000E+000	-0.159455	0.0000000E+000	0.0000000E+000	0.0000000E+000	0.159455	359.322	0.159455	0.00016392
1974.37	0.134592	0.00512247	0.13469	-2.17958	406.193	0.000225144	2.68803	15736.7	22.7617	2	65	0.0101327	0.0752304	0	0.30651	7.41911	0.282366	7.42448	2.17958	22761.7	598059	598492	-87.8204	0.0000000E+000	0.0000000E+000	0.0000000E+000	87.8204	0.0000000E+000	0.0000000E+000	0.0000000E+000	-87.8204	0.0000000E+000	0.0000000E+000	0.0000000E+000	-2.17958	0.0000000E+000	0.0000000E+000	0.0000000E+000	2.17958	26.2748	2.17958	0.000583434
161.812	0.143636	0.00555512	0.143743	-2.21482	415.188	0.000220876	3.03514	177058	264.441	2	65	0.0100801	0.0701258	0	0.313178	6.95167	0.268856	6.95687	2.21482	264441	6.8375e+06	6.84261e+06	-87.7852	0.0000000E+000	0.0000000E+000	0.0000000E+000	87.7852	0.0000000E+000	0.0000000E+000	0.0000000E+000	-87.7852	0.0000000E+000	0.0000000E+000	0.0000000E+000	-2.21482	0.0000000E+000	0.0000000E+000	0.0000000E+000	2.21482	25.8564	2.21482	0.000791849
13.2565	0.156342	0.00452048	0.156407	-1.6562	424.513	0.000226953	2.46256	2.65586e+06	2218.52	2	37	0.0100835	0.0644697	0	0.320061	6.39091	0.184788	6.39358	1.6562	2.21852e+06	7.67278e+07	7.67599e+07	-88.3438	0.0000000E+000	0.0000000E+000	0.0000000E+000	88.3438	0.0000000E+000	0.0000000E+000	0.0000000E+000	-88.3438	0.0000000E+000	0.0000000E+000	0.0000000E+000	-1.6562	0.0000000E+000	0.0000000E+000	0.0000000E+000	1.6562	34.5852	1.6562	0.000511427
[...]
237.793	0.140987	0.00533256	0.141088	-2.16607	803.109	0.000253106	2.89727	125512	179.298	3	65	0.0101977	0.0722787	0	0.62996	7.08271	0.267889	7.08777	2.16607	179298	4.74045e+06	4.74384e+06	-87.8339	0.0000000E+000	0.0000000E+000	0.0000000E+000	87.8339	0.0000000E+000	0.0000000E+000	0.0000000E+000	-87.8339	0.0000000E+000	0.0000000E+000	0.0000000E+000	-2.16607	0.0000000E+000	0.0000000E+000	0.0000000E+000	2.16607	26.4389	2.16607	0.000838066
19.4825	0.153501	0.00490005	0.153579	-1.82837	812.386	0.000241698	4.11187	1.66715e+06	1697.12	3	37	0.0102014	0.0664243	0	0.638306	6.50799	0.207748	6.5113	1.82837	1.69712e+06	5.31645e+07	5.31916e+07	-88.1716	0.0000000E+000	0.0000000E+000	0.0000000E+000	88.1716	0.0000000E+000	0.0000000E+000	0.0000000E+000	-88.1716	0.0000000E+000	0.0000000E+000	0.0000000E+000	-1.82837	0.0000000E+000	0.0000000E+000	0.0000000E+000	1.82837	31.3264	1.82837	0.000823085
1.59602	0.158371	0.0030862	0.158401	-1.11639	824.953	0.00024002	2.35732	3.23116e+07	12265.6	3	37	0.0102001	0.0643941	0	0.646184	6.31188	0.123	6.31307	1.11639	1.22656e+07	6.2942e+08	6.2954e+08	-88.8836	0.0000000E+000	0.0000000E+000	0.0000000E+000	88.8836	0.0000000E+000	0.0000000E+000	0.0000000E+000	-88.8836	0.0000000E+000	0.0000000E+000	0.0000000E+000	-1.11639	0.0000000E+000	0.0000000E+000	0.0000000E+000	1.11639	51.316	1.11639	0.00243738
0.13084	0.164561	0.00262758	0.164582	-0.914775	950.003	0.000261107	2.38257	4.62938e+08	117997	3	37	0.0101969	0.0619564	0	0.708654	6.07523	0.0970044	6.076	0.914775	1.17996e+08	7.38994e+09	7.39088e+09	-89.0852	0.0000000E+000	0.0000000E+000	0.0000000E+000	89.0852	0.0000000E+000	0.0000000E+000	0.0000000E+000	-89.0852	0.0000000E+000	0.0000000E+000	0.0000000E+000	-0.914775	0.0000000E+000	0.0000000E+000	0.0000000E+000	0.914775	62.6284	0.914775	0.00991627
52006	0.123138	-0.00397483	0.123202	1.84884	1174.49	0.000333318	3.37164	-769.923	-0.801406	4	65	0.0105662	0.0857638	0	0.926435	8.11255	-0.26187	8.11677	-1.84884	-801.406	24827	24839.9	-91.8488	0.0000000E+000	0.0000000E+000	0.0000000E+000	91.8488	0.0000000E+000	0.0000000E+000	0.0000000E+000	-91.8488	0.0000000E+000	0.0000000E+000	0.0000000E+000	1.84884	0.0000000E+000	0.0000000E+000	0.0000000E+000	-1.84884	-30.9793	-1.84884	0.000744742
4261.37	0.129499	0.00443488	0.129575	-1.9614	1182.01	0.000235975	2.83597	8421.5	9.86526	4	65	0.0103744	0.080065	0	0.933939	7.713	0.264142	7.71752	1.9614	9865.25	288068	288236	-88.0386	0.0000000E+000	0.0000000E+000	0.0000000E+000	88.0386	0.0000000E+000	0.0000000E+000	0.0000000E+000	-88.0386	0.0000000E+000	0.0000000E+000	0.0000000E+000	-1.9614	0.0000000E+000	0.0000000E+000	0.0000000E+000	1.9614	29.2002	1.9614	0.000865746
349.218	0.138455	0.00545798	0.138562	-2.25747	1191.01	0.000250179	2.72846	83501.1	129.559	4	65	0.010239	0.073895	0	0.94202	7.21138	0.284278	7.21698	2.25747	129559	3.28657e+06	3.28912e+06	-87.7425	0.0000000E+000	0.0000000E+000	0.0000000E+000	87.7425	0.0000000E+000	0.0000000E+000	0.0000000E+000	-87.7425	0.0000000E+000	0.0000000E+000	0.0000000E+000	-2.25747	0.0000000E+000	0.0000000E+000	0.0000000E+000	2.25747	25.3674	2.25747	0.000418416
90.8427	0.142955	0.00526661	0.143052	-2.10989	1195.85	0.000237298	2.49109	332659	450.895	4	65	0.0102328	0.0715325	0	0.944798	6.98575	0.257363	6.99048	2.10989	450895	1.22389e+07	1.22472e+07	-87.8901	0.0000000E+000	0.0000000E+000	0.0000000E+000	87.8901	0.0000000E+000	0.0000000E+000	0.0000000E+000	-87.8901	0.0000000E+000	0.0000000E+000	0.0000000E+000	-2.10989	0.0000000E+000	0.0000000E+000	0.0000000E+000	2.10989	27.1436	2.10989	0.000787031