Folder: Thesis/Python/ImpedanceDataOld/dual layer tests _vanadium positive side single-tank symmetric cell_1.6 M total vanadium_ve=5cms_choose the cycle number=3 (part 2)

File: single-layer_AvCarb 1186 carbon cloth.mpt
EC-Lab ASCII FILE
Nb header lines : 66

Potentio Electrochemical Impedance Spectroscopy

Run on channel : 1 (SN 5680)
User :
Electrode connection : standard
Potential control : Ewe
Ewe ctrl range : min = 0.00 V, max = 5.00 V
Ewe,I filtering : <None>
Safety Limits :
	Do not start on E overload
Channel : Floating
Acquisition started on : 06/29/2023 21:00:50.888
Loaded Setting File :  C:\Data\baili\Electrode Combination Tests\20230622\old\AF DL\AFDL_ve2_20mL_EIS_2_C01.mpr
Saved on :
	File : AvCarb_ve5_30mL_EIS_C01.mpr
	Directory : C:\Data\baili\Electrode Combination Tests\20230622\new tests\positive\
	Host : 192.168.0.1
Device : SP-300 (SN 0955)
Address : 192.168.0.4
EC-Lab for windows v11.46 (software)
Internet server v11.40 (firmware)
Command interpretor v11.46 (firmware)
Electrode material :
Initial state :
Electrolyte :
Comments :
Current amplifier : B-10A5V
Cable : standard
Electrode surface area : 0.001 cm2
Characteristic mass : 0.001 g
Equivalent Weight : 0.000 g/eq.
Density : 0.000 g/cm3
Volume (V) : 0.001 cm3
Cycle Definition : Charge/Discharge alternance
Mode                Single sine
E (V)               0.0000
vs.                 Eoc
tE (h:m:s)          0:00:0.0000
record              0
dI                  0.000
unit dI             mA
dt (s)              0.000
fi                  200.000
unit fi             kHz
ff                  50.000
unit ff             mHz
Nd                  8
Points              per decade
spacing             Logarithmic
Va (mV)             10.0
pw                  0.10
Na                  3
corr                0
E range min (V)     0.000
E range max (V)     5.000
I Range             Auto
Bandwidth           8
nc cycles           3
goto Ns'            0
nr cycles           0
inc. cycle          0

freq/Hz	Re(Z)/Ohm	-Im(Z)/Ohm	|Z|/Ohm	Phase(Z)/deg	time/s	<Ewe>/V	<I>/mA	Cs/uF	Cp/uF	cycle number	I Range	|Ewe|/V	|I|/A	Ns	(Q-Qo)/mA.h	Re(Y)/Ohm-1	Im(Y)/Ohm-1	|Y|/Ohm-1	Phase(Y)/deg	Re(C)/nF	Im(C)/nF	|C|/nF	Phase(C)/deg	Re(M)	Im(M)	|M|	Phase(M)/deg	Re(Permittivity)	Im(Permittivity)	|Permittivity|	Phase(Permittivity)/deg	Re(Resistivity)/Ohm.cm	Im(Resistivity)/Ohm.cm	|Resistivity|/Ohm.cm	Phase(Resistivity)/deg	Re(Conductivity)/mS/cm	Im(Conductivity)/mS/cm	|Conductivity|/mS/cm	Phase(Conductivity)/deg	Tan(Delta)	Loss Angle(Delta)/deg	dq/mA.h
199998	0.0979303	-0.0218907	0.100347	12.6004	2.11449	0.000286529	-13.7442	-36.3526	-1.72999	1	65	0.0096585	0.0962509	0	-0.00270766	9.72539	-2.17395	9.96541	-12.6004	-1729.99	7739.29	7930.29	-102.6	0.0000000E+000	0.0000000E+000	0.0000000E+000	102.6	0.0000000E+000	0.0000000E+000	0.0000000E+000	-102.6	0.0000000E+000	0.0000000E+000	0.0000000E+000	12.6004	0.0000000E+000	0.0000000E+000	0.0000000E+000	-12.6004	-4.47361	-12.6004	-0.00270766
10753.8	0.10925	0.010198	0.109725	-5.33283	7.87548	0.000305077	3.69732	1451.26	12.536	1	65	0.0103974	0.0947582	0	0.00252504	9.07423	0.847035	9.11368	5.33283	12536	134298	134881	-84.6672	0.0000000E+000	0.0000000E+000	0.0000000E+000	84.6672	0.0000000E+000	0.0000000E+000	0.0000000E+000	-84.6672	0.0000000E+000	0.0000000E+000	0.0000000E+000	-5.33283	0.0000000E+000	0.0000000E+000	0.0000000E+000	5.33283	10.7129	5.33283	0.000861107
577.965	0.143733	0.0129663	0.144317	-5.15473	15.3425	0.000208274	2.95447	21237.5	171.435	1	65	0.0103427	0.0716663	0	0.00884571	6.90117	0.622558	6.92919	5.15473	171434	1.90038e+06	1.9081e+06	-84.8453	0.0000000E+000	0.0000000E+000	0.0000000E+000	84.8453	0.0000000E+000	0.0000000E+000	0.0000000E+000	-84.8453	0.0000000E+000	0.0000000E+000	0.0000000E+000	-5.15473	0.0000000E+000	0.0000000E+000	0.0000000E+000	5.15473	11.0852	5.15473	0.000520981
31.0636	0.152551	0.00181499	0.152562	-0.681649	22.2089	0.000223541	2.91031	2.82289e+06	399.53	1	65	0.0103067	0.0675577	0	0.0148209	6.55425	0.0779797	6.55471	0.681649	399530	3.35808e+07	3.35832e+07	-89.3184	0.0000000E+000	0.0000000E+000	0.0000000E+000	89.3184	0.0000000E+000	0.0000000E+000	0.0000000E+000	-89.3184	0.0000000E+000	0.0000000E+000	0.0000000E+000	-0.681649	0.0000000E+000	0.0000000E+000	0.0000000E+000	0.681649	84.0507	0.681649	0.000831377
1.66934	0.157043	0.00140402	0.157049	-0.51223	31.775	0.000224473	2.60418	6.79053e+07	5427.21	1	37	0.0103115	0.0656579	0	0.0235861	6.36718	0.0569248	6.36744	0.51223	5.42721e+06	6.07047e+08	6.07072e+08	-89.4878	0.0000000E+000	0.0000000E+000	0.0000000E+000	89.4878	0.0000000E+000	0.0000000E+000	0.0000000E+000	-89.4878	0.0000000E+000	0.0000000E+000	0.0000000E+000	-0.51223	0.0000000E+000	0.0000000E+000	0.0000000E+000	0.51223	111.853	0.51223	0.000989746
0.0897631	0.161747	0.000302158	0.161747	-0.107034	161.378	0.00022806	2.39945	5.86797e+09	20477.9	1	37	0.0103129	0.0637595	0	0.0801789	6.18249	0.0115495	6.1825	0.107034	2.04777e+07	1.09619e+10	1.09619e+10	-89.893	0.0000000E+000	0.0000000E+000	0.0000000E+000	89.893	0.0000000E+000	0.0000000E+000	0.0000000E+000	-89.893	0.0000000E+000	0.0000000E+000	0.0000000E+000	-0.107034	0.0000000E+000	0.0000000E+000	0.0000000E+000	0.107034	535.304	0.107034	0.0135317
25840.6	0.109267	0.00437882	0.109355	-2.29486	274.922	0.000328322	2.85646	1406.57	2.25526	2	65	0.0109062	0.0997317	0	0.185972	9.13719	0.366167	9.14453	2.29486	2255.26	56276.8	56322	-87.7051	0.0000000E+000	0.0000000E+000	0.0000000E+000	87.7051	0.0000000E+000	0.0000000E+000	0.0000000E+000	-87.7051	0.0000000E+000	0.0000000E+000	0.0000000E+000	-2.29486	0.0000000E+000	0.0000000E+000	0.0000000E+000	2.29486	24.9536	2.29486	0.00161275
1388.67	0.137871	0.0171208	0.13893	-7.07872	281.368	0.000226412	2.32993	6694.2	101.66	2	65	0.0103888	0.0747772	0	0.190787	7.143	0.887013	7.19786	7.07872	101660	818657	824945	-82.9213	0.0000000E+000	0.0000000E+000	0.0000000E+000	82.9213	0.0000000E+000	0.0000000E+000	0.0000000E+000	-82.9213	0.0000000E+000	0.0000000E+000	0.0000000E+000	-7.07872	0.0000000E+000	0.0000000E+000	0.0000000E+000	7.07872	8.05287	7.07872	0.00078051
74.6414	0.156256	0.00323273	0.15629	-1.1852	288.287	0.000221323	2.3139	659585	282.195	2	65	0.0103082	0.0659554	0	0.194973	6.397	0.132345	6.39837	1.1852	282195	1.36401e+07	1.3643e+07	-88.8148	0.0000000E+000	0.0000000E+000	0.0000000E+000	88.8148	0.0000000E+000	0.0000000E+000	0.0000000E+000	-88.8148	0.0000000E+000	0.0000000E+000	0.0000000E+000	-1.1852	0.0000000E+000	0.0000000E+000	0.0000000E+000	1.1852	48.3357	1.1852	0.000676857
4.01052	0.160748	0.00114	0.160752	-0.406325	295.445	0.00023165	2.16149	3.48109e+07	1750.7	2	37	0.0103117	0.0641465	0	0.200504	6.22061	0.0441155	6.22077	0.406325	1.7507e+06	2.46861e+08	2.46867e+08	-89.5937	0.0000000E+000	0.0000000E+000	0.0000000E+000	89.5937	0.0000000E+000	0.0000000E+000	0.0000000E+000	-89.5937	0.0000000E+000	0.0000000E+000	0.0000000E+000	-0.406325	0.0000000E+000	0.0000000E+000	0.0000000E+000	0.406325	141.007	0.406325	0.000361092
0.215779	0.164034	0.000803022	0.164036	-0.280486	349.721	0.000239941	2.0814	9.18508e+08	22011.9	2	37	0.0103153	0.0628841	0	0.220233	6.09614	0.0298433	6.09621	0.280486	2.2012e+07	4.4964e+09	4.49646e+09	-89.7195	0.0000000E+000	0.0000000E+000	0.0000000E+000	89.7195	0.0000000E+000	0.0000000E+000	0.0000000E+000	-89.7195	0.0000000E+000	0.0000000E+000	0.0000000E+000	-0.280486	0.0000000E+000	0.0000000E+000	0.0000000E+000	0.280486	204.271	0.280486	0.00235272
[...]
9.64507	0.162359	0.00113123	0.162362	-0.399201	561.586	0.000229357	2.11802	1.45869e+07	708.1	3	37	0.0108054	0.0665509	0	0.403876	6.15891	0.0429121	6.15906	0.399201	708099	1.01629e+08	1.01632e+08	-89.6008	0.0000000E+000	0.0000000E+000	0.0000000E+000	89.6008	0.0000000E+000	0.0000000E+000	0.0000000E+000	-89.6008	0.0000000E+000	0.0000000E+000	0.0000000E+000	-0.399201	0.0000000E+000	0.0000000E+000	0.0000000E+000	0.399201	143.524	0.399201	0.000198103
0.518689	0.16506	0.00135059	0.165066	-0.468809	584.565	0.000230238	2.11602	2.27189e+08	15209.8	3	37	0.0108045	0.065456	0	0.412812	6.058	0.0495692	6.0582	0.468809	1.52099e+07	1.85884e+09	1.8589e+09	-89.5312	0.0000000E+000	0.0000000E+000	0.0000000E+000	89.5312	0.0000000E+000	0.0000000E+000	0.0000000E+000	-89.5312	0.0000000E+000	0.0000000E+000	0.0000000E+000	-0.468809	0.0000000E+000	0.0000000E+000	0.0000000E+000	0.468809	122.213	0.468809	0.00293086
149300	0.107795	-0.0156961	0.108931	8.2847	808.078	0.000329441	3.34425	-67.9151	-1.41009	4	65	0.0107534	0.098717	0	0.490973	9.08429	-1.32278	9.18009	-8.2847	-1410.09	9683.9	9786.02	-98.2847	0.0000000E+000	0.0000000E+000	0.0000000E+000	98.2847	0.0000000E+000	0.0000000E+000	0.0000000E+000	-98.2847	0.0000000E+000	0.0000000E+000	0.0000000E+000	8.2847	0.0000000E+000	0.0000000E+000	0.0000000E+000	-8.2847	-6.86759	-8.2847	-0.00071084
8023.44	0.119878	0.0116799	0.120446	-5.56484	813.912	0.000227549	2.65747	1698.33	15.9704	4	65	0.0103025	0.0855367	0	0.497987	8.26337	0.805111	8.3025	5.56484	15970.4	163914	164690	-84.4352	0.0000000E+000	0.0000000E+000	0.0000000E+000	84.4352	0.0000000E+000	0.0000000E+000	0.0000000E+000	-84.4352	0.0000000E+000	0.0000000E+000	0.0000000E+000	-5.56484	0.0000000E+000	0.0000000E+000	0.0000000E+000	5.56484	10.2636	5.56484	0.00104779
431.242	0.153839	0.0108103	0.154218	-4.0196	820.978	0.000236609	2.76144	34139.8	167.752	4	65	0.0100551	0.0652009	0	0.50313	6.46838	0.454536	6.48433	4.0196	167752	2.38723e+06	2.39312e+06	-85.9804	0.0000000E+000	0.0000000E+000	0.0000000E+000	85.9804	0.0000000E+000	0.0000000E+000	0.0000000E+000	-85.9804	0.0000000E+000	0.0000000E+000	0.0000000E+000	-4.0196	0.0000000E+000	0.0000000E+000	0.0000000E+000	4.0196	14.2307	4.0196	0.000786192
23.1963	0.162789	0.0014444	0.162796	-0.508362	828.173	0.000233738	4.08737	4.75022e+06	373.941	4	37	0.0100441	0.0616973	0	0.507851	6.14242	0.0545006	6.14266	0.508362	373941	4.21446e+07	4.21462e+07	-89.4916	0.0000000E+000	0.0000000E+000	0.0000000E+000	89.4916	0.0000000E+000	0.0000000E+000	0.0000000E+000	-89.4916	0.0000000E+000	0.0000000E+000	0.0000000E+000	-0.508362	0.0000000E+000	0.0000000E+000	0.0000000E+000	0.508362	112.704	0.508362	0.000771629
1.24562	0.164561	0.00147146	0.164567	-0.512309	839.313	0.000226809	2.33231	8.68337e+07	6942.18	4	37	0.0100437	0.0610312	0	0.514319	6.0763	0.0543326	6.07655	0.512309	6.94214e+06	7.76381e+08	7.76412e+08	-89.4877	0.0000000E+000	0.0000000E+000	0.0000000E+000	89.4877	0.0000000E+000	0.0000000E+000	0.0000000E+000	-89.4877	0.0000000E+000	0.0000000E+000	0.0000000E+000	-0.512309	0.0000000E+000	0.0000000E+000	0.0000000E+000	0.512309	111.835	0.512309	-0.00036925
0.288924	0.166241	0.000993797	0.166244	-0.342512	872.136	0.000231467	2.26521	5.54293e+08	19808	4	37	0.0100436	0.0604148	0	0.544632	6.01513	0.0359587	6.01524	0.342512	1.98081e+07	3.31346e+09	3.31352e+09	-89.6575	0.0000000E+000	0.0000000E+000	0.0000000E+000	89.6575	0.0000000E+000	0.0000000E+000	0.0000000E+000	-89.6575	0.0000000E+000	0.0000000E+000	0.0000000E+000	-0.342512	0.0000000E+000	0.0000000E+000	0.0000000E+000	0.342512	167.279	0.342512	0.0098764

File: single-layer_ELAT-H carbon cloth.mpt
EC-Lab ASCII FILE
Nb header lines : 66

Potentio Electrochemical Impedance Spectroscopy

Run on channel : 1 (SN 5680)
User :
Electrode connection : standard
Potential control : Ewe
Ewe ctrl range : min = 0.00 V, max = 5.00 V
Ewe,I filtering : <None>
Safety Limits :
	Do not start on E overload
Channel : Floating
Acquisition started on : 06/29/2023 22:04:26.336
Loaded Setting File :  C:\Data\baili\Electrode Combination Tests\20230622\new tests\positive\AvCarbvers_ve5_30mL_EIS_C01.mpr
Saved on :
	File : ELAT_ve5_30mL_EIS_C01.mpr
	Directory : C:\Data\baili\Electrode Combination Tests\20230622\new tests\positive\
	Host : 192.168.0.1
Device : SP-300 (SN 0955)
Address : 192.168.0.4
EC-Lab for windows v11.46 (software)
Internet server v11.40 (firmware)
Command interpretor v11.46 (firmware)
Electrode material :
Initial state :
Electrolyte :
Comments :
Current amplifier : B-10A5V
Cable : standard
Electrode surface area : 0.001 cm2
Characteristic mass : 0.001 g
Equivalent Weight : 0.000 g/eq.
Density : 0.000 g/cm3
Volume (V) : 0.001 cm3
Cycle Definition : Charge/Discharge alternance
Mode                Single sine
E (V)               0.0000
vs.                 Eoc
tE (h:m:s)          0:00:0.0000
record              0
dI                  0.000
unit dI             mA
dt (s)              0.000
fi                  200.000
unit fi             kHz
ff                  50.000
unit ff             mHz
Nd                  8
Points              per decade
spacing             Logarithmic
Va (mV)             10.0
pw                  0.10
Na                  3
corr                0
E range min (V)     0.000
E range max (V)     5.000
I Range             Auto
Bandwidth           8
nc cycles           3
goto Ns'            0
nr cycles           0
inc. cycle          0

freq/Hz	Re(Z)/Ohm	-Im(Z)/Ohm	|Z|/Ohm	Phase(Z)/deg	time/s	<Ewe>/V	<I>/mA	Cs/uF	Cp/uF	cycle number	I Range	|Ewe|/V	|I|/A	Ns	(Q-Qo)/mA.h	Re(Y)/Ohm-1	Im(Y)/Ohm-1	|Y|/Ohm-1	Phase(Y)/deg	Re(C)/nF	Im(C)/nF	|C|/nF	Phase(C)/deg	Re(M)	Im(M)	|M|	Phase(M)/deg	Re(Permittivity)	Im(Permittivity)	|Permittivity|	Phase(Permittivity)/deg	Re(Resistivity)/Ohm.cm	Im(Resistivity)/Ohm.cm	|Resistivity|/Ohm.cm	Phase(Resistivity)/deg	Re(Conductivity)/mS/cm	Im(Conductivity)/mS/cm	|Conductivity|/mS/cm	Phase(Conductivity)/deg	Tan(Delta)	Loss Angle(Delta)/deg	dq/mA.h
199998	0.100346	-0.0189598	0.102121	10.6996	1.7885	-0.000614484	-20.3228	-41.972	-1.44675	1	65	0.0097529	0.0955029	0	-0.0042382	9.62201	-1.81803	9.79226	-10.6996	-1446.75	7657.02	7792.5	-100.7	0.0000000E+000	0.0000000E+000	0.0000000E+000	100.7	0.0000000E+000	0.0000000E+000	0.0000000E+000	-100.7	0.0000000E+000	0.0000000E+000	0.0000000E+000	10.6996	0.0000000E+000	0.0000000E+000	0.0000000E+000	-10.6996	-5.29256	-10.6996	-0.0042382
14400.2	0.108336	0.00597733	0.108501	-3.15804	6.97248	-0.000591704	-2.47748	1849.03	5.61168	1	65	0.0104535	0.0963452	0	-0.00463189	9.20253	0.507741	9.21653	3.15804	5611.67	101709	101863	-86.842	0.0000000E+000	0.0000000E+000	0.0000000E+000	86.842	0.0000000E+000	0.0000000E+000	0.0000000E+000	-86.842	0.0000000E+000	0.0000000E+000	0.0000000E+000	-3.15804	0.0000000E+000	0.0000000E+000	0.0000000E+000	3.15804	18.1245	3.15804	-0.000372218
1036.66	0.131322	0.0180955	0.132563	-7.84566	13.6294	-0.000688265	-2.84248	8484.24	158.092	1	65	0.0101203	0.0763433	0	-0.0112393	7.47297	1.02974	7.54358	7.84566	158092	1.1473e+06	1.15814e+06	-82.1543	0.0000000E+000	0.0000000E+000	0.0000000E+000	82.1543	0.0000000E+000	0.0000000E+000	0.0000000E+000	-82.1543	0.0000000E+000	0.0000000E+000	0.0000000E+000	-7.84566	0.0000000E+000	0.0000000E+000	0.0000000E+000	7.84566	7.25716	7.84566	-0.000888973
74.6414	0.157824	0.00779124	0.158016	-2.82621	19.8607	-0.000691247	-2.93676	273674	665.341	1	65	0.0100444	0.0635654	0	-0.0168256	6.32077	0.312036	6.32847	2.82621	665342	1.34775e+07	1.3494e+07	-87.1738	0.0000000E+000	0.0000000E+000	0.0000000E+000	87.1738	0.0000000E+000	0.0000000E+000	0.0000000E+000	-87.1738	0.0000000E+000	0.0000000E+000	0.0000000E+000	-2.82621	0.0000000E+000	0.0000000E+000	0.0000000E+000	2.82621	20.2566	2.82621	-0.00085761
5.37311	0.16739	0.00450498	0.167451	-1.54163	26.1759	-0.000680808	-2.90524	6.57509e+06	4758.99	1	37	0.0100455	0.0599905	0	-0.0230947	5.96975	0.160664	5.97191	1.54163	4.75898e+06	1.76828e+08	1.76892e+08	-88.4584	0.0000000E+000	0.0000000E+000	0.0000000E+000	88.4584	0.0000000E+000	0.0000000E+000	0.0000000E+000	-88.4584	0.0000000E+000	0.0000000E+000	0.0000000E+000	-1.54163	0.0000000E+000	0.0000000E+000	0.0000000E+000	1.54163	37.1566	1.54163	-0.00119401
0.386872	0.178948	0.00716364	0.179091	-2.29244	56.0679	-0.000697375	-2.93957	5.74274e+07	91883.4	1	37	0.010043	0.0560773	0	-0.0526145	5.57927	0.223349	5.58374	2.29244	9.18833e+07	2.29525e+09	2.29709e+09	-87.7076	0.0000000E+000	0.0000000E+000	0.0000000E+000	87.7076	0.0000000E+000	0.0000000E+000	0.0000000E+000	-87.7076	0.0000000E+000	0.0000000E+000	0.0000000E+000	-2.29244	0.0000000E+000	0.0000000E+000	0.0000000E+000	2.29244	24.9801	2.29244	-0.00804772
149300	0.10763	-0.0133633	0.108457	7.07757	271.336	-0.000553341	-1.92505	-79.7713	-1.21104	2	65	0.0107374	0.0990019	0	-0.254926	9.15002	-1.13606	9.22028	-7.07757	-1211.04	9753.96	9828.86	-97.0776	0.0000000E+000	0.0000000E+000	0.0000000E+000	97.0776	0.0000000E+000	0.0000000E+000	0.0000000E+000	-97.0776	0.0000000E+000	0.0000000E+000	0.0000000E+000	7.07757	0.0000000E+000	0.0000000E+000	0.0000000E+000	-7.07757	-8.05419	-7.07757	-0.000714757
10753.8	0.116033	0.00740099	0.116268	-3.64959	276.52	-0.000567825	-2.05398	1999.72	8.10261	2	65	0.0102116	0.0878282	0	-0.256288	8.58335	0.547478	8.60079	3.64959	8102.62	127033	127291	-86.3504	0.0000000E+000	0.0000000E+000	0.0000000E+000	86.3504	0.0000000E+000	0.0000000E+000	0.0000000E+000	-86.3504	0.0000000E+000	0.0000000E+000	0.0000000E+000	-3.64959	0.0000000E+000	0.0000000E+000	0.0000000E+000	3.64959	15.678	3.64959	-0.000575851
773.765	0.141593	0.0181603	0.142753	-7.30872	282.622	-0.000662857	-2.77448	11326.3	183.302	2	65	0.010165	0.0712071	0	-0.261237	6.94821	0.891161	7.00513	7.30872	183302	1.42917e+06	1.44088e+06	-82.6913	0.0000000E+000	0.0000000E+000	0.0000000E+000	82.6913	0.0000000E+000	0.0000000E+000	0.0000000E+000	-82.6913	0.0000000E+000	0.0000000E+000	0.0000000E+000	-7.30872	0.0000000E+000	0.0000000E+000	0.0000000E+000	7.30872	7.79681	7.30872	-0.000363705
55.7312	0.164108	0.00657871	0.164239	-2.29563	288.844	-0.000656538	-2.91943	434091	696.479	2	65	0.010116	0.0615928	0	-0.265935	6.08378	0.243886	6.08867	2.29563	696479	1.73738e+07	1.73878e+07	-87.7044	0.0000000E+000	0.0000000E+000	0.0000000E+000	87.7044	0.0000000E+000	0.0000000E+000	0.0000000E+000	-87.7044	0.0000000E+000	0.0000000E+000	0.0000000E+000	-2.29563	0.0000000E+000	0.0000000E+000	0.0000000E+000	2.29563	24.9452	2.29563	-0.000623209
4.01052	0.173129	0.00470817	0.173193	-1.55775	295.317	-0.000674256	-2.87752	8.42882e+06	6228.89	2	37	0.0101179	0.0584195	0	-0.271088	5.77177	0.156961	5.7739	1.55775	6.2289e+06	2.29049e+08	2.29134e+08	-88.4422	0.0000000E+000	0.0000000E+000	0.0000000E+000	88.4422	0.0000000E+000	0.0000000E+000	0.0000000E+000	-88.4422	0.0000000E+000	0.0000000E+000	0.0000000E+000	-1.55775	0.0000000E+000	0.0000000E+000	0.0000000E+000	1.55775	36.772	1.55775	-0.000983095
[...]
577.965	0.148624	0.0174808	0.149649	-6.70815	551.613	-0.000654245	-2.49295	15752.8	214.948	3	65	0.0103766	0.0693396	0	-0.508363	6.63658	0.780576	6.68232	6.70815	214948	1.82752e+06	1.84012e+06	-83.2918	0.0000000E+000	0.0000000E+000	0.0000000E+000	83.2918	0.0000000E+000	0.0000000E+000	0.0000000E+000	-83.2918	0.0000000E+000	0.0000000E+000	0.0000000E+000	-6.70815	0.0000000E+000	0.0000000E+000	0.0000000E+000	6.70815	8.50216	6.70815	-0.000518108
41.6112	0.167662	0.00596894	0.167769	-2.03892	557.806	-0.000657172	-2.76796	640786	811.121	3	65	0.0103485	0.0616831	0	-0.512505	5.95682	0.212068	5.96059	2.03892	811122	2.27837e+07	2.27981e+07	-87.9611	0.0000000E+000	0.0000000E+000	0.0000000E+000	87.9611	0.0000000E+000	0.0000000E+000	0.0000000E+000	-87.9611	0.0000000E+000	0.0000000E+000	0.0000000E+000	-2.03892	0.0000000E+000	0.0000000E+000	0.0000000E+000	2.03892	28.0891	2.03892	-0.00036629
2.99674	0.176563	0.00498869	0.176634	-1.61843	564.713	-0.000667331	-2.85161	1.06459e+07	8492	3	37	0.0103492	0.0585914	0	-0.516245	5.65918	0.159897	5.66143	1.61843	8.49198e+06	3.00555e+08	3.00675e+08	-88.3816	0.0000000E+000	0.0000000E+000	0.0000000E+000	88.3816	0.0000000E+000	0.0000000E+000	0.0000000E+000	-88.3816	0.0000000E+000	0.0000000E+000	0.0000000E+000	-1.61843	0.0000000E+000	0.0000000E+000	0.0000000E+000	1.61843	35.3927	1.61843	0.000304416
0.215779	0.189018	0.00597838	0.189113	-1.81158	617.884	-0.000664168	-2.7749	1.23375e+08	123297	3	37	0.0103442	0.0546988	0	-0.564381	5.28521	0.167164	5.28786	1.81158	1.23297e+08	3.89828e+09	3.90023e+09	-88.1884	0.0000000E+000	0.0000000E+000	0.0000000E+000	88.1884	0.0000000E+000	0.0000000E+000	0.0000000E+000	-88.1884	0.0000000E+000	0.0000000E+000	0.0000000E+000	-1.81158	0.0000000E+000	0.0000000E+000	0.0000000E+000	1.81158	31.6169	1.81158	-0.0187395
83200.3	0.114025	-0.00576647	0.11417	2.8951	809.247	-0.000561525	-2.52332	-331.73	-0.846249	4	65	0.0109758	0.096135	0	-0.669179	8.74766	-0.442388	8.75884	-2.8951	-846.249	16733.5	16754.9	-92.8951	0.0000000E+000	0.0000000E+000	0.0000000E+000	92.8951	0.0000000E+000	0.0000000E+000	0.0000000E+000	-92.8951	0.0000000E+000	0.0000000E+000	0.0000000E+000	2.8951	0.0000000E+000	0.0000000E+000	0.0000000E+000	-2.8951	-19.7737	-2.8951	-0.000274106
5992.11	0.12379	0.0101183	0.124203	-4.6728	814.537	-0.000652549	-2.87546	2625.03	17.4213	4	65	0.0103954	0.0836969	0	-0.674716	8.02456	0.655904	8.05132	4.6728	17421.3	213138	213849	-85.3272	0.0000000E+000	0.0000000E+000	0.0000000E+000	85.3272	0.0000000E+000	0.0000000E+000	0.0000000E+000	-85.3272	0.0000000E+000	0.0000000E+000	0.0000000E+000	-4.6728	0.0000000E+000	0.0000000E+000	0.0000000E+000	4.6728	12.2344	4.6728	-0.000353445
431.242	0.154067	0.0162517	0.154922	-6.02155	820.763	-0.00065225	-2.52835	22709.2	249.904	4	65	0.0102538	0.0661872	0	-0.678763	6.41926	0.677133	6.45487	6.02155	249904	2.3691e+06	2.38225e+06	-83.9784	0.0000000E+000	0.0000000E+000	0.0000000E+000	83.9784	0.0000000E+000	0.0000000E+000	0.0000000E+000	-83.9784	0.0000000E+000	0.0000000E+000	0.0000000E+000	-6.02155	0.0000000E+000	0.0000000E+000	0.0000000E+000	6.02155	9.48006	6.02155	-0.000707231
179.483	0.162345	0.011621	0.16276	-4.09437	822.834	-0.000661888	-2.40314	76305.1	388.994	4	65	0.0102369	0.0628953	0	-0.679378	6.12832	0.438678	6.144	4.09437	388994	5.43424e+06	5.44814e+06	-85.9056	0.0000000E+000	0.0000000E+000	0.0000000E+000	85.9056	0.0000000E+000	0.0000000E+000	0.0000000E+000	-85.9056	0.0000000E+000	0.0000000E+000	0.0000000E+000	-4.09437	0.0000000E+000	0.0000000E+000	0.0000000E+000	4.09437	13.97	4.09437	-0.000260643