Folder: Thesis/Python/ImpedanceDataOld/dual layer tests _vanadium positive side single-tank symmetric cell_1.6 M total vanadium_ve=5cms_choose the cycle number=3 (part 3)

File: single-layer_Freudenberg H23 carbon paper.mpt
EC-Lab ASCII FILE
Nb header lines : 66

Potentio Electrochemical Impedance Spectroscopy

Run on channel : 1 (SN 5680)
User :
Electrode connection : standard
Potential control : Ewe
Ewe ctrl range : min = 0.00 V, max = 5.00 V
Ewe,I filtering : <None>
Safety Limits :
	Do not start on E overload
Channel : Floating
Acquisition started on : 06/29/2023 23:12:48.160
Loaded Setting File :  C:\Data\baili\Electrode Combination Tests\20230622\new tests\positive\ELAT_ve5_30mL_EIS_C01.mpr
Saved on :
	File : FrePaper_ve5_30mL_EIS_C01.mpr
	Directory : C:\Data\baili\Electrode Combination Tests\20230622\new tests\positive\
	Host : 192.168.0.1
Device : SP-300 (SN 0955)
Address : 192.168.0.4
EC-Lab for windows v11.46 (software)
Internet server v11.40 (firmware)
Command interpretor v11.46 (firmware)
Electrode material :
Initial state :
Electrolyte :
Comments :
Current amplifier : B-10A5V
Cable : standard
Electrode surface area : 0.001 cm2
Characteristic mass : 0.001 g
Equivalent Weight : 0.000 g/eq.
Density : 0.000 g/cm3
Volume (V) : 0.001 cm3
Cycle Definition : Charge/Discharge alternance
Mode                Single sine
E (V)               0.0000
vs.                 Eoc
tE (h:m:s)          0:00:0.0000
record              0
dI                  0.000
unit dI             mA
dt (s)              0.000
fi                  200.000
unit fi             kHz
ff                  50.000
unit ff             mHz
Nd                  8
Points              per decade
spacing             Logarithmic
Va (mV)             10.0
pw                  0.10
Na                  3
corr                0
E range min (V)     0.000
E range max (V)     5.000
I Range             Auto
Bandwidth           8
nc cycles           3
goto Ns'            0
nr cycles           0
inc. cycle          0

freq/Hz	Re(Z)/Ohm	-Im(Z)/Ohm	|Z|/Ohm	Phase(Z)/deg	time/s	<Ewe>/V	<I>/mA	Cs/uF	Cp/uF	cycle number	I Range	|Ewe|/V	|I|/A	Ns	(Q-Qo)/mA.h	Re(Y)/Ohm-1	Im(Y)/Ohm-1	|Y|/Ohm-1	Phase(Y)/deg	Re(C)/nF	Im(C)/nF	|C|/nF	Phase(C)/deg	Re(M)	Im(M)	|M|	Phase(M)/deg	Re(Permittivity)	Im(Permittivity)	|Permittivity|	Phase(Permittivity)/deg	Re(Resistivity)/Ohm.cm	Im(Resistivity)/Ohm.cm	|Resistivity|/Ohm.cm	Phase(Resistivity)/deg	Re(Conductivity)/mS/cm	Im(Conductivity)/mS/cm	|Conductivity|/mS/cm	Phase(Conductivity)/deg	Tan(Delta)	Loss Angle(Delta)/deg	dq/mA.h
199998	0.12016	-0.0239211	0.122518	11.259	1.3725	7.08192e-06	-16.5036	-33.2669	-1.26816	1	65	0.00964649	0.0787351	0	-0.00330302	8.00496	-1.5936	8.16204	-11.259	-1268.16	6370.2	6495.2	-101.259	0.0000000E+000	0.0000000E+000	0.0000000E+000	101.259	0.0000000E+000	0.0000000E+000	0.0000000E+000	-101.259	0.0000000E+000	0.0000000E+000	0.0000000E+000	11.259	0.0000000E+000	0.0000000E+000	0.0000000E+000	-11.259	-5.02319	-11.259	-0.00330302
10753.8	0.122742	0.000232636	0.122742	-0.108594	7.1335	2.08949e-05	1.21369	63618.3	0.228533	1	65	0.01031	0.0839971	0	-0.000741461	8.14715	0.0154415	8.14717	0.108594	228.539	120577	120577	-89.8914	0.0000000E+000	0.0000000E+000	0.0000000E+000	89.8914	0.0000000E+000	0.0000000E+000	0.0000000E+000	-89.8914	0.0000000E+000	0.0000000E+000	0.0000000E+000	-0.108594	0.0000000E+000	0.0000000E+000	0.0000000E+000	0.108594	527.614	0.108594	0.00038183
577.965	0.126706	0.00334819	0.12675	-1.51369	14.5994	-0.000101092	0.480893	82244.8	57.3897	1	65	0.0106033	0.0836553	0	0.000681722	7.88681	0.208408	7.88956	1.51369	57389.7	2.1718e+06	2.17256e+06	-88.4863	0.0000000E+000	0.0000000E+000	0.0000000E+000	88.4863	0.0000000E+000	0.0000000E+000	0.0000000E+000	-88.4863	0.0000000E+000	0.0000000E+000	0.0000000E+000	-1.51369	0.0000000E+000	0.0000000E+000	0.0000000E+000	1.51369	37.843	1.51369	-0.00020359
31.0636	0.13606	0.00599845	0.136192	-2.52436	21.4639	-9.03918e-05	0.562128	854140	1656.93	1	65	0.0106139	0.0779333	0	0.00126198	7.33546	0.323398	7.34259	2.52436	1.65693e+06	3.75833e+07	3.76198e+07	-87.4756	0.0000000E+000	0.0000000E+000	0.0000000E+000	87.4756	0.0000000E+000	0.0000000E+000	0.0000000E+000	-87.4756	0.0000000E+000	0.0000000E+000	0.0000000E+000	-2.52436	0.0000000E+000	0.0000000E+000	0.0000000E+000	2.52436	22.6825	2.52436	6.40638e-05
1.66934	0.146061	0.00483922	0.146141	-1.89761	31.0851	-9.21588e-05	0.347014	1.97015e+07	21602.7	1	37	0.010616	0.072642	0	0.00466471	6.83897	0.226586	6.84272	1.89761	2.16027e+07	6.52028e+08	6.52385e+08	-88.1024	0.0000000E+000	0.0000000E+000	0.0000000E+000	88.1024	0.0000000E+000	0.0000000E+000	0.0000000E+000	-88.1024	0.0000000E+000	0.0000000E+000	0.0000000E+000	-1.89761	0.0000000E+000	0.0000000E+000	0.0000000E+000	1.89761	30.1826	1.89761	0.00184168
0.0897631	0.162761	0.00514078	0.162842	-1.80908	160.69	-5.77084e-05	0.846114	3.449e+08	343731	1	37	0.0106144	0.0651824	0	0.00257209	6.13786	0.193864	6.14093	1.80908	3.43732e+08	1.08828e+10	1.08882e+10	-88.1909	0.0000000E+000	0.0000000E+000	0.0000000E+000	88.1909	0.0000000E+000	0.0000000E+000	0.0000000E+000	-88.1909	0.0000000E+000	0.0000000E+000	0.0000000E+000	-1.80908	0.0000000E+000	0.0000000E+000	0.0000000E+000	1.80908	31.6607	1.80908	-0.0128533
25840.6	0.119526	-0.00212695	0.119545	1.01946	274.391	3.77464e-05	1.64446	-2895.74	-0.916661	2	65	0.0108816	0.0910247	0	-0.0023864	8.3637	-0.14883	8.36503	-1.01946	-916.664	51512.9	51521	-91.0195	0.0000000E+000	0.0000000E+000	0.0000000E+000	91.0195	0.0000000E+000	0.0000000E+000	0.0000000E+000	-91.0195	0.0000000E+000	0.0000000E+000	0.0000000E+000	1.01946	0.0000000E+000	0.0000000E+000	0.0000000E+000	-1.01946	-56.1962	-1.01946	0.00120453
1388.67	0.122832	0.00247026	0.122857	-1.15211	280.839	-6.63077e-05	1.11624	46395.7	18.7571	2	65	0.0102875	0.0837357	0	0.0011793	8.1379	0.16366	8.13955	1.15211	18757.1	932682	932871	-88.8479	0.0000000E+000	0.0000000E+000	0.0000000E+000	88.8479	0.0000000E+000	0.0000000E+000	0.0000000E+000	-88.8479	0.0000000E+000	0.0000000E+000	0.0000000E+000	-1.15211	0.0000000E+000	0.0000000E+000	0.0000000E+000	1.15211	49.7243	1.15211	-7.66217e-05
74.6414	0.129941	0.00551585	0.130058	-2.43067	287.761	-5.58314e-05	0.992339	386570	695.305	2	65	0.0102691	0.0789573	0	0.00339653	7.68193	0.326088	7.68885	2.43067	695304	1.63799e+07	1.63946e+07	-87.5693	0.0000000E+000	0.0000000E+000	0.0000000E+000	87.5693	0.0000000E+000	0.0000000E+000	0.0000000E+000	-87.5693	0.0000000E+000	0.0000000E+000	0.0000000E+000	-2.43067	0.0000000E+000	0.0000000E+000	0.0000000E+000	2.43067	23.5578	2.43067	0.000496757
4.01052	0.142962	0.00381246	0.143013	-1.52759	294.934	-5.28675e-05	0.721929	1.04091e+07	7397.36	2	37	0.0102754	0.0718496	0	0.00739766	6.98991	0.186405	6.99239	1.52759	7.39737e+06	2.7739e+08	2.77489e+08	-88.4724	0.0000000E+000	0.0000000E+000	0.0000000E+000	88.4724	0.0000000E+000	0.0000000E+000	0.0000000E+000	-88.4724	0.0000000E+000	0.0000000E+000	0.0000000E+000	-1.52759	0.0000000E+000	0.0000000E+000	0.0000000E+000	1.52759	37.4985	1.52759	0.00144088
0.215779	0.1584	0.00883696	0.158646	-3.19316	349.21	-6.15601e-05	0.55796	8.34656e+07	258973	2	37	0.0102733	0.0647563	0	0.0229712	6.29355	0.35111	6.30333	3.19316	2.58973e+08	4.64201e+09	4.64923e+09	-86.8068	0.0000000E+000	0.0000000E+000	0.0000000E+000	86.8068	0.0000000E+000	0.0000000E+000	0.0000000E+000	-86.8068	0.0000000E+000	0.0000000E+000	0.0000000E+000	-3.19316	0.0000000E+000	0.0000000E+000	0.0000000E+000	3.19316	17.9247	3.19316	0.011273
[...]
0.518689	0.149192	0.0107392	0.149578	-4.1172	584.07	-4.87049e-05	0.909166	2.85719e+07	147283	3	37	0.0106189	0.0709924	0	0.0248464	6.66823	0.479997	6.68548	4.1172	1.47283e+08	2.04608e+09	2.05138e+09	-85.8828	0.0000000E+000	0.0000000E+000	0.0000000E+000	85.8828	0.0000000E+000	0.0000000E+000	0.0000000E+000	-85.8828	0.0000000E+000	0.0000000E+000	0.0000000E+000	-4.1172	0.0000000E+000	0.0000000E+000	0.0000000E+000	4.1172	13.8922	4.1172	0.00151573
149300	0.1169	-0.0173106	0.118175	8.42319	807.413	5.19136e-05	1.37448	-61.5809	-1.32136	4	65	0.0107296	0.0907944	0	0.119882	8.37076	-1.23955	8.46204	-8.42319	-1321.36	8923.27	9020.57	-98.4232	0.0000000E+000	0.0000000E+000	0.0000000E+000	98.4232	0.0000000E+000	0.0000000E+000	0.0000000E+000	-98.4232	0.0000000E+000	0.0000000E+000	0.0000000E+000	8.42319	0.0000000E+000	0.0000000E+000	0.0000000E+000	-8.42319	-6.75308	-8.42319	-0.000194225
8023.44	0.119169	0.000626619	0.11917	-0.301272	813.246	-3.65753e-05	0.970541	31656	0.875236	4	65	0.0102168	0.0857329	0	0.121371	8.39122	0.0441231	8.39134	0.301272	875.228	166450	166453	-89.6987	0.0000000E+000	0.0000000E+000	0.0000000E+000	89.6987	0.0000000E+000	0.0000000E+000	0.0000000E+000	-89.6987	0.0000000E+000	0.0000000E+000	0.0000000E+000	-0.301272	0.0000000E+000	0.0000000E+000	0.0000000E+000	0.301272	190.178	0.301272	0.000644123
431.242	0.123552	0.00341917	0.123599	-1.5852	820.081	-4.20557e-05	0.931041	107939	82.6016	4	65	0.0107341	0.086846	0	0.12121	8.08757	0.223815	8.09067	1.5852	82601.7	2.98482e+06	2.98596e+06	-88.4148	0.0000000E+000	0.0000000E+000	0.0000000E+000	88.4148	0.0000000E+000	0.0000000E+000	0.0000000E+000	-88.4148	0.0000000E+000	0.0000000E+000	0.0000000E+000	-1.5852	0.0000000E+000	0.0000000E+000	0.0000000E+000	1.5852	36.1351	1.5852	-0.000200476
23.1963	0.13371	0.00571825	0.133833	-2.44882	826.997	-4.1133e-05	0.95107	1.19988e+06	2190.49	4	65	0.0107303	0.0801773	0	0.123685	7.4652	0.319257	7.47202	2.44882	2.1905e+06	5.12205e+07	5.12673e+07	-87.5512	0.0000000E+000	0.0000000E+000	0.0000000E+000	87.5512	0.0000000E+000	0.0000000E+000	0.0000000E+000	-87.5512	0.0000000E+000	0.0000000E+000	0.0000000E+000	-2.44882	0.0000000E+000	0.0000000E+000	0.0000000E+000	2.44882	23.3831	2.44882	0.000448651
1.24562	0.142723	0.00589684	0.142845	-2.36592	838.432	-3.60371e-05	0.849459	2.16678e+07	36925.4	4	37	0.0107306	0.0751205	0	0.126564	6.99463	0.288995	7.0006	2.36592	3.69254e+07	8.93718e+08	8.9448e+08	-87.6341	0.0000000E+000	0.0000000E+000	0.0000000E+000	87.6341	0.0000000E+000	0.0000000E+000	0.0000000E+000	-87.6341	0.0000000E+000	0.0000000E+000	0.0000000E+000	-2.36592	0.0000000E+000	0.0000000E+000	0.0000000E+000	2.36592	24.2033	2.36592	-0.0011179
0.0669968	0.16113	0.00435913	0.161189	-1.54967	1011.85	-4.84633e-05	0.975308	5.44962e+08	398561	4	37	0.0107312	0.0665754	0	0.123135	6.20162	0.167775	6.20389	1.54967	3.98561e+08	1.47323e+10	1.47377e+10	-88.4503	0.0000000E+000	0.0000000E+000	0.0000000E+000	88.4503	0.0000000E+000	0.0000000E+000	0.0000000E+000	-88.4503	0.0000000E+000	0.0000000E+000	0.0000000E+000	-1.54967	0.0000000E+000	0.0000000E+000	0.0000000E+000	1.54967	36.9638	1.54967	-0.00194038
0.049976	0.161424	0.00361785	0.161465	-1.2839	1073.98	-4.57581e-05	0.883653	8.80252e+08	441931	4	37	0.0107314	0.0664629	0	0.146164	6.19175	0.13877	6.19331	1.2839	4.41931e+08	1.97184e+10	1.97234e+10	-88.7161	0.0000000E+000	0.0000000E+000	0.0000000E+000	88.7161	0.0000000E+000	0.0000000E+000	0.0000000E+000	-88.7161	0.0000000E+000	0.0000000E+000	0.0000000E+000	-1.2839	0.0000000E+000	0.0000000E+000	0.0000000E+000	1.2839	44.6187	1.2839	0.0230292