Folder: Thesis/Python/Data/GoldElectrode/240322/Carbon (part 3)

File: 240322-CVEIS-Activation-5mM_Fe2Fe3-1M_H2SO4-0000RPM-Ag_AgCl_BLF8-GC_RDE_04_PEIS_C15.mpt
EC-Lab ASCII FILE
Nb header lines : 66

Potentio Electrochemical Impedance Spectroscopy

Run on channel : 15 (SN 19485)
User :
Electrode connection : standard
Potential control : Ewe
Ewe ctrl range : min = -2.50 V, max = 2.50 V
Ewe,I filtering : 50 kHz
Safety Limits :
	Do not start on E overload
Channel : Floating
Acquisition started on : 03/22/2024 12:39:19.547
Loaded Setting File :  C:\Data\mathias\GoldElectrode\240322-CVEIS-Activation-5mM_Fe2Fe3-1M_H2SO4-0000RPM-Ag_AgCl_BLF8-Au_RDE.mps
Saved on :
	File : 240322-CVEIS-Activation-5mM_Fe2Fe3-1M_H2SO4-0000RPM-Ag_AgCl_BLF8-GC_RDE_04_PEIS_C15.mpr
	Directory : C:\Data\mathias\GoldElectrode\
	Host : 192.168.0.1
Device : VMP-300 (SN 0826)
Address : USB
EC-Lab for windows v11.52 (software)
Internet server v11.52 (firmware)
Command interpretor v11.52 (firmware)
Electrode material :
Initial state :
Electrolyte :
Comments :
Cable : special
Electrode surface area : 0.001 cm²
Characteristic mass : 0.001 g
Equivalent Weight : 0.000 g/eq.
Density : 0.000 g/cm3
Volume (V) : 0.001 cm³
Record EIS quality indicators
Cycle Definition : Charge/Discharge alternance
Mode                Single sine
E (V)               0.0000
vs.                 Eoc
tE (h:m:s)          0:00:0.0000
record              0
dI                  0.000
unit dI             mA
dt (s)              0.000
fi                  100.000
unit fi             kHz
ff                  100.000
unit ff             Hz
Nd                  10
Points              per decade
spacing             Logarithmic
Va (mV)             5.0
pw                  0.10
Na                  2
corr                0
E range min (V)     -2.500
E range max (V)     2.500
I Range             Auto
Bandwidth           8
nc cycles           0
goto Ns'            0
nr cycles           0
inc. cycle          0

freq/Hz	Re(Z)/Ohm	-Im(Z)/Ohm	|Z|/Ohm	Phase(Z)/deg	time/s	<Ewe>/V	<I>/mA	Cs/µF	Cp/µF	cycle number	I Range	|Ewe|/V	|I|/A	Ns	(Q-Qo)/mA.h	THD Ewe/%	NSD Ewe/%	NSR Ewe/%	|Ewe h2|/V	|Ewe h3|/V	|Ewe h4|/V	|Ewe h5|/V	|Ewe h6|/V	|Ewe h7|/V	THD I/%	NSD I/%	NSR I/%	|I h2|/A	|I h3|/A	|I h4|/A	|I h5|/A	|I h6|/A	|I h7|/A	Re(Y)/Ohm-1	Im(Y)/Ohm-1	|Y|/Ohm-1	Phase(Y)/deg	Re(C)/nF	Im(C)/nF	|C|/nF	Phase(C)/deg	Re(M)	Im(M)	|M|	Phase(M)/deg	Re(Permittivity)	Im(Permittivity)	|Permittivity|	Phase(Permittivity)/deg	Re(Resistivity)/Ohm.cm	Im(Resistivity)/Ohm.cm	|Resistivity|/Ohm.cm	Phase(Resistivity)/deg	Re(Conductivity)/mS/cm	Im(Conductivity)/mS/cm	|Conductivity|/mS/cm	Phase(Conductivity)/deg	Tan(Delta)	Loss Angle(Delta)/deg	dq/mA.h
100004	2.96711	0.242139	2.97697	-4.66543	390.392	0.441185	-0.16449	6.57264	0.0434828	1	37	0.00484039	0.00162594	0	-3.92894e-05	1.0594	0.763487	27.2762	3.00764e-05	1.64468e-05	2.0858e-05	2.20125e-05	1.71115e-05	9.54888e-06	0.549272	0.25879	10.8897	1.71486e-06	3.12312e-06	5.98071e-06	3.49151e-06	1.4522e-06	3.26599e-06	0.334799	0.0273221	0.335912	4.66543	43.4828	532.829	534.6	-85.3346	0.0000000E+000	0.0000000E+000	0.0000000E+000	85.3346	0.0000000E+000	0.0000000E+000	0.0000000E+000	-85.3346	0.0000000E+000	0.0000000E+000	0.0000000E+000	-4.66543	0.0000000E+000	0.0000000E+000	0.0000000E+000	4.66543	12.2538	85.3346	-3.92894e-05
63093.8	2.99949	0.320725	3.01659	-6.10326	392.022	0.44116	-0.071582	7.86502	0.0889068	1	37	0.00518423	0.00171858	0	-6.90254e-05	1.23849	0.433388	24.7453	3.9428e-05	1.70801e-05	3.23285e-05	2.00054e-05	2.0081e-05	1.8807e-05	0.551279	0.248631	10.3144	4.051e-06	1.88021e-06	3.07191e-06	4.75787e-06	3.31415e-06	3.98077e-06	0.329622	0.0352454	0.331501	6.10326	88.9068	831.475	836.214	-83.8967	0.0000000E+000	0.0000000E+000	0.0000000E+000	83.8967	0.0000000E+000	0.0000000E+000	0.0000000E+000	-83.8967	0.0000000E+000	0.0000000E+000	0.0000000E+000	-6.10326	0.0000000E+000	0.0000000E+000	0.0000000E+000	6.10326	9.3522	83.8967	-1.46518e-05
39814.1	3.00815	0.470654	3.04474	-8.89238	393.652	0.441207	-0.0670223	8.49341	0.202947	1	37	0.00514548	0.00168995	0	-0.000101057	1.09102	0.674084	24.3933	3.98524e-05	1.10798e-05	1.71585e-05	1.84438e-05	1.67639e-05	1.73005e-05	0.58614	0.404196	10.5059	2.86459e-06	1.04217e-06	4.11534e-06	6.10263e-06	3.56718e-06	2.63437e-06	0.324487	0.0507692	0.328435	8.89238	202.947	1297.12	1312.9	-81.1076	0.0000000E+000	0.0000000E+000	0.0000000E+000	81.1076	0.0000000E+000	0.0000000E+000	0.0000000E+000	-81.1076	0.0000000E+000	0.0000000E+000	0.0000000E+000	-8.89238	0.0000000E+000	0.0000000E+000	0.0000000E+000	8.89238	6.39143	81.1076	-1.77791e-05
25116.9	3.07327	0.715959	3.15556	-13.1139	395.282	0.441186	-0.0609178	8.85046	0.455605	1	37	0.00518729	0.00164386	0	-0.000130622	0.950154	0.301318	24.3674	2.12943e-05	1.56136e-05	2.39704e-05	1.74567e-05	2.49716e-05	8.77139e-06	0.517725	0.31592	10.9458	2.20171e-06	4.58055e-06	3.59956e-06	3.13916e-06	4.25637e-06	2.09562e-06	0.308636	0.0719009	0.316901	13.1139	455.605	1955.69	2008.06	-76.8861	0.0000000E+000	0.0000000E+000	0.0000000E+000	76.8861	0.0000000E+000	0.0000000E+000	0.0000000E+000	-76.8861	0.0000000E+000	0.0000000E+000	0.0000000E+000	-13.1139	0.0000000E+000	0.0000000E+000	0.0000000E+000	13.1139	4.29252	76.8861	-1.47359e-05
15847.7	3.1614	1.02617	3.32377	-17.983	396.912	0.441165	-0.0624811	9.7867	0.932845	1	37	0.00515953	0.00155231	0	-0.00015768	1.85796	0.529794	24.3583	2.85612e-05	2.65539e-05	6.67592e-05	2.88833e-05	2.41624e-05	3.69025e-05	0.561628	0.278428	11.4071	5.65922e-06	5.93142e-07	1.66805e-06	3.00941e-06	3.17417e-06	4.61577e-06	0.286165	0.0928871	0.300863	17.983	932.845	2873.9	3021.5	-72.017	0.0000000E+000	0.0000000E+000	0.0000000E+000	72.017	0.0000000E+000	0.0000000E+000	0.0000000E+000	-72.017	0.0000000E+000	0.0000000E+000	0.0000000E+000	-17.983	0.0000000E+000	0.0000000E+000	0.0000000E+000	17.983	3.08079	72.017	-1.30815e-05
10002.2	3.25779	1.50004	3.58655	-24.7236	398.542	0.441202	-0.0626486	10.6077	1.85555	1	37	0.00497027	0.00138581	0	-0.000182116	1.73494	1.13513	26.0316	4.8901e-05	2.05103e-05	2.23719e-05	5.82735e-05	1.92217e-05	1.32494e-05	0.4705	0.658614	12.9329	1.78726e-06	1.5865e-06	3.6824e-06	2.82665e-06	1.51048e-06	3.01897e-06	0.253262	0.116614	0.278819	24.7236	1855.55	4029.89	4436.56	-65.2764	0.0000000E+000	0.0000000E+000	0.0000000E+000	65.2764	0.0000000E+000	0.0000000E+000	0.0000000E+000	-65.2764	0.0000000E+000	0.0000000E+000	0.0000000E+000	-24.7236	0.0000000E+000	0.0000000E+000	0.0000000E+000	24.7236	2.1718	65.2764	-1.19272e-05
6307.74	3.40353	2.24764	4.07871	-33.4402	400.325	0.441043	-0.00318791	11.2259	3.409	1	38	0.00492737	0.00120807	0	-0.000201469	1.98959	0.872135	24.9084	2.01749e-05	1.31742e-05	2.10579e-05	2.63784e-05	4.90817e-05	7.03589e-05	0.174068	0.080067	2.46961	7.45812e-07	3.98764e-07	1.14848e-06	7.85037e-07	4.56262e-07	9.25861e-07	0.204589	0.135108	0.245175	33.4402	3409	5162.14	6186.19	-56.5598	0.0000000E+000	0.0000000E+000	0.0000000E+000	56.5598	0.0000000E+000	0.0000000E+000	0.0000000E+000	-56.5598	0.0000000E+000	0.0000000E+000	0.0000000E+000	-33.4402	0.0000000E+000	0.0000000E+000	0.0000000E+000	33.4402	1.51427	56.5598	-3.59173e-06
[...]
631.01	5.58571	17.872	18.7245	-72.6439	408.434	0.441104	-0.000188359	14.1127	12.8569	1	38	0.0048404	0.000258506	0	-0.000214627	1.34104	0.739505	26.4732	2.8492e-05	1.65172e-05	2.16328e-05	1.77898e-05	3.26289e-05	2.27793e-05	0.967075	0.349467	11.4157	1.53632e-06	1.22041e-06	6.65802e-07	1.12067e-06	3.79543e-07	6.08892e-07	0.0159315	0.0509743	0.0534059	72.6439	12856.9	4018.29	13470.2	-17.3561	0.0000000E+000	0.0000000E+000	0.0000000E+000	17.3561	0.0000000E+000	0.0000000E+000	0.0000000E+000	-17.3561	0.0000000E+000	0.0000000E+000	0.0000000E+000	-72.6439	0.0000000E+000	0.0000000E+000	0.0000000E+000	72.6439	0.31254	17.3561	2.13099e-07
398.089	7.11247	27.1616	28.0774	-75.3261	409.922	0.441108	-0.000566335	14.7192	13.7747	1	38	0.00479003	0.000170601	0	-0.000215175	1.15494	0.579955	26.0743	1.7306e-05	2.30636e-05	1.11786e-05	1.97264e-05	1.6588e-05	3.34018e-05	1.02419	0.309073	17.8127	1.12032e-06	7.88519e-07	4.92292e-07	5.3733e-07	5.50986e-07	4.08071e-07	0.00902211	0.0344542	0.0356159	75.3261	13774.7	3607.01	14239.1	-14.6739	0.0000000E+000	0.0000000E+000	0.0000000E+000	14.6739	0.0000000E+000	0.0000000E+000	0.0000000E+000	-14.6739	0.0000000E+000	0.0000000E+000	0.0000000E+000	-75.3261	0.0000000E+000	0.0000000E+000	0.0000000E+000	75.3261	0.261858	14.6739	-8.2841e-08
251.206	9.13997	41.6257	42.6173	-77.6158	411.659	0.441066	0.0012366	15.2205	14.5204	1	39	0.00486764	0.000114217	0	-0.000214543	1.10246	0.710104	25.3359	2.28132e-05	9.58776e-06	3.28959e-05	2.05928e-05	1.56444e-05	1.38093e-05	0.898048	0.418466	11.0788	7.12562e-07	2.72923e-07	1.13183e-07	4.70566e-07	4.34151e-07	1.43835e-07	0.00503237	0.0229187	0.0234646	77.6158	14520.4	3188.32	14866.3	-12.3842	0.0000000E+000	0.0000000E+000	0.0000000E+000	12.3842	0.0000000E+000	0.0000000E+000	0.0000000E+000	-12.3842	0.0000000E+000	0.0000000E+000	0.0000000E+000	-77.6158	0.0000000E+000	0.0000000E+000	0.0000000E+000	77.6158	0.219575	12.3842	3.67276e-07
158.529	13.0949	63.831	65.1604	-78.4066	413.151	0.441069	0.00127648	15.7282	15.093	1	39	0.00481069	7.38284e-05	0	-0.000214289	1.392	0.864947	25.2515	9.45609e-06	1.74165e-05	9.12173e-06	2.62688e-05	4.11814e-05	3.52635e-05	1.37023	0.454045	16.6801	4.75861e-07	2.99179e-07	1.93161e-07	4.65978e-07	4.76145e-07	2.40276e-07	0.00308415	0.0150336	0.0153467	78.4066	15093	3096.33	15407.3	-11.5934	0.0000000E+000	0.0000000E+000	0.0000000E+000	11.5934	0.0000000E+000	0.0000000E+000	0.0000000E+000	-11.5934	0.0000000E+000	0.0000000E+000	0.0000000E+000	-78.4066	0.0000000E+000	0.0000000E+000	0.0000000E+000	78.4066	0.20515	11.5934	1.47311e-07
99.9682	19.0378	96.2053	98.0709	-78.8065	414.624	0.441097	0.000747724	16.5485	15.9249	1	39	0.00474662	4.83999e-05	0	-0.000213861	2.67751	0.67293	26.2254	5.34308e-05	5.36962e-05	4.43169e-05	4.80235e-05	5.47611e-05	5.35129e-05	2.01836	0.835271	24.9086	4.0117e-07	2.71001e-07	2.2493e-07	5.05775e-07	5.34067e-07	3.38049e-07	0.00197942	0.0100027	0.0101967	78.8065	15924.9	3151.34	16233.7	-11.1935	0.0000000E+000	0.0000000E+000	0.0000000E+000	11.1935	0.0000000E+000	0.0000000E+000	0.0000000E+000	-11.1935	0.0000000E+000	0.0000000E+000	0.0000000E+000	-78.8065	0.0000000E+000	0.0000000E+000	0.0000000E+000	78.8065	0.197887	11.1935	2.0668e-07

File: 240322-CVEIS-Activation-5mM_Fe2Fe3-1M_H2SO4-0000RPM-Ag_AgCl_BLF8-GC_RDE_06_PEIS_C15.mpt
EC-Lab ASCII FILE
Nb header lines : 66

Potentio Electrochemical Impedance Spectroscopy

Run on channel : 15 (SN 19485)
User :
Electrode connection : standard
Potential control : Ewe
Ewe ctrl range : min = -2.50 V, max = 2.50 V
Ewe,I filtering : 50 kHz
Safety Limits :
	Do not start on E overload
Channel : Floating
Acquisition started on : 03/22/2024 12:39:19.547
Loaded Setting File :  C:\Data\mathias\GoldElectrode\240322-CVEIS-Activation-5mM_Fe2Fe3-1M_H2SO4-0000RPM-Ag_AgCl_BLF8-Au_RDE.mps
Saved on :
	File : 240322-CVEIS-Activation-5mM_Fe2Fe3-1M_H2SO4-0000RPM-Ag_AgCl_BLF8-GC_RDE_06_PEIS_C15.mpr
	Directory : C:\Data\mathias\GoldElectrode\
	Host : 192.168.0.1
Device : VMP-300 (SN 0826)
Address : USB
EC-Lab for windows v11.52 (software)
Internet server v11.52 (firmware)
Command interpretor v11.52 (firmware)
Electrode material :
Initial state :
Electrolyte :
Comments :
Cable : special
Electrode surface area : 0.001 cm²
Characteristic mass : 0.001 g
Equivalent Weight : 0.000 g/eq.
Density : 0.000 g/cm3
Volume (V) : 0.001 cm³
Record EIS quality indicators
Cycle Definition : Charge/Discharge alternance
Mode                Single sine
E (V)               0.0000
vs.                 Eoc
tE (h:m:s)          0:00:0.0000
record              0
dI                  0.000
unit dI             mA
dt (s)              0.000
fi                  100.000
unit fi             kHz
ff                  100.000
unit ff             Hz
Nd                  10
Points              per decade
spacing             Logarithmic
Va (mV)             5.0
pw                  0.10
Na                  2
corr                0
E range min (V)     -2.500
E range max (V)     2.500
I Range             Auto
Bandwidth           8
nc cycles           0
goto Ns'            0
nr cycles           0
inc. cycle          0

freq/Hz	Re(Z)/Ohm	-Im(Z)/Ohm	|Z|/Ohm	Phase(Z)/deg	time/s	<Ewe>/V	<I>/mA	Cs/µF	Cp/µF	cycle number	I Range	|Ewe|/V	|I|/A	Ns	(Q-Qo)/mA.h	THD Ewe/%	NSD Ewe/%	NSR Ewe/%	|Ewe h2|/V	|Ewe h3|/V	|Ewe h4|/V	|Ewe h5|/V	|Ewe h6|/V	|Ewe h7|/V	THD I/%	NSD I/%	NSR I/%	|I h2|/A	|I h3|/A	|I h4|/A	|I h5|/A	|I h6|/A	|I h7|/A	Re(Y)/Ohm-1	Im(Y)/Ohm-1	|Y|/Ohm-1	Phase(Y)/deg	Re(C)/nF	Im(C)/nF	|C|/nF	Phase(C)/deg	Re(M)	Im(M)	|M|	Phase(M)/deg	Re(Permittivity)	Im(Permittivity)	|Permittivity|	Phase(Permittivity)/deg	Re(Resistivity)/Ohm.cm	Im(Resistivity)/Ohm.cm	|Resistivity|/Ohm.cm	Phase(Resistivity)/deg	Re(Conductivity)/mS/cm	Im(Conductivity)/mS/cm	|Conductivity|/mS/cm	Phase(Conductivity)/deg	Tan(Delta)	Loss Angle(Delta)/deg	dq/mA.h
100004	2.95867	0.185635	2.96449	-3.59018	777.949	0.441179	-0.170948	8.57323	0.0336174	1	37	0.00489577	0.00165147	0	-4.3267e-05	0.949866	0.471037	26.0977	6.17647e-06	1.18224e-05	2.21462e-05	1.38785e-05	2.9755e-05	1.79252e-05	0.479165	0.30981	10.7053	1.69925e-06	3.97897e-06	2.0268e-06	4.07224e-06	3.68016e-06	1.89023e-06	0.336664	0.0211232	0.337326	3.59018	33.6174	535.798	536.852	-86.4098	0.0000000E+000	0.0000000E+000	0.0000000E+000	86.4098	0.0000000E+000	0.0000000E+000	0.0000000E+000	-86.4098	0.0000000E+000	0.0000000E+000	0.0000000E+000	-3.59018	0.0000000E+000	0.0000000E+000	0.0000000E+000	3.59018	15.9381	86.4098	-4.3267e-05
63093.8	2.956	0.264888	2.96784	-5.12063	779.579	0.441159	-0.0720473	9.52293	0.0758603	1	37	0.00518498	0.00174705	0	-7.89705e-05	1.62243	1.63455	24.786	3.65407e-05	4.28468e-05	2.45947e-05	7.18419e-06	3.98335e-05	2.71913e-05	0.454342	0.237422	10.1633	4.27538e-06	3.1108e-06	3.07738e-06	2.3066e-06	2.56446e-06	3.1571e-06	0.335601	0.0300733	0.336945	5.12063	75.8604	846.556	849.948	-84.8794	0.0000000E+000	0.0000000E+000	0.0000000E+000	84.8794	0.0000000E+000	0.0000000E+000	0.0000000E+000	-84.8794	0.0000000E+000	0.0000000E+000	0.0000000E+000	-5.12063	0.0000000E+000	0.0000000E+000	0.0000000E+000	5.12063	11.1594	84.8794	-1.7242e-05
39814.1	2.98294	0.400719	3.00974	-7.65113	781.209	0.44116	-0.065887	9.9757	0.176834	1	37	0.00517665	0.00171997	0	-0.000112969	1.51316	0.573169	25.3706	5.10864e-05	1.47174e-05	3.24743e-05	8.99118e-06	2.75459e-05	3.44365e-05	0.565591	0.25996	10.4205	1.79325e-06	6.01021e-06	3.53615e-06	2.45729e-06	3.41189e-06	4.37532e-06	0.329297	0.0442366	0.332255	7.65113	176.834	1316.35	1328.17	-82.3489	0.0000000E+000	0.0000000E+000	0.0000000E+000	82.3489	0.0000000E+000	0.0000000E+000	0.0000000E+000	-82.3489	0.0000000E+000	0.0000000E+000	0.0000000E+000	-7.65113	0.0000000E+000	0.0000000E+000	0.0000000E+000	7.65113	7.44398	82.3489	-1.77295e-05
25116.9	3.03454	0.601217	3.09352	-11.2066	782.839	0.441181	-0.0684553	10.5396	0.398088	1	37	0.00513784	0.00166084	0	-0.000140556	1.32481	1.37587	24.8585	5.47559e-05	2.61601e-05	1.62039e-05	1.42003e-05	1.28648e-05	1.08468e-05	0.581722	0.353425	10.581	4.02812e-06	2.5147e-06	4.92228e-06	2.76994e-06	4.28459e-06	2.3642e-06	0.317093	0.0628239	0.323256	11.2066	398.087	2009.28	2048.33	-78.7934	0.0000000E+000	0.0000000E+000	0.0000000E+000	78.7934	0.0000000E+000	0.0000000E+000	0.0000000E+000	-78.7934	0.0000000E+000	0.0000000E+000	0.0000000E+000	-11.2066	0.0000000E+000	0.0000000E+000	0.0000000E+000	11.2066	5.04733	78.7934	-1.32912e-05
15847.7	3.0867	0.864359	3.20544	-15.6436	784.469	0.441181	-0.06062	11.6188	0.844836	1	37	0.00506459	0.00158	0	-0.000173953	1.37768	0.515064	25.2948	1.35088e-05	2.02672e-05	2.33322e-05	2.42167e-05	3.20768e-05	4.35838e-05	0.632277	0.341838	11.3364	4.65804e-06	5.34309e-06	3.5011e-06	3.23543e-06	2.73949e-06	3.88513e-06	0.300413	0.0841237	0.311969	15.6436	844.836	3016.99	3133.04	-74.3564	0.0000000E+000	0.0000000E+000	0.0000000E+000	74.3564	0.0000000E+000	0.0000000E+000	0.0000000E+000	-74.3564	0.0000000E+000	0.0000000E+000	0.0000000E+000	-15.6436	0.0000000E+000	0.0000000E+000	0.0000000E+000	15.6436	3.57109	74.3564	-1.58296e-05
10002.2	3.19001	1.24475	3.42426	-21.3158	786.099	0.441154	-0.0659614	12.7833	1.68916	1	37	0.00502886	0.0014686	0	-0.000206133	2.4467	0.551939	25.8284	2.08385e-05	3.32818e-05	3.19944e-05	0.000104639	2.87268e-05	1.37225e-05	0.720706	0.380307	12.387	4.55735e-06	2.879e-06	3.07823e-06	4.36574e-06	5.56776e-06	2.12568e-06	0.272056	0.106157	0.292034	21.3158	1689.16	4328.94	4646.83	-68.6842	0.0000000E+000	0.0000000E+000	0.0000000E+000	68.6842	0.0000000E+000	0.0000000E+000	0.0000000E+000	-68.6842	0.0000000E+000	0.0000000E+000	0.0000000E+000	-21.3158	0.0000000E+000	0.0000000E+000	0.0000000E+000	21.3158	2.56278	68.6842	-1.77179e-05
6307.74	3.31317	1.87736	3.80809	-29.5375	787.851	0.441052	-0.0637095	13.44	3.26648	1	37	0.0049306	0.00129477	0	-0.000235362	1.73944	0.854106	25.915	2.21662e-05	6.04591e-05	1.53998e-05	3.21179e-05	2.33032e-05	3.11775e-05	0.651023	0.22439	13.8114	2.07183e-06	2.07743e-06	3.69636e-06	1.9147e-06	4.95936e-06	4.36985e-06	0.228469	0.129459	0.262598	29.5375	3266.48	5764.67	6625.81	-60.4625	0.0000000E+000	0.0000000E+000	0.0000000E+000	60.4625	0.0000000E+000	0.0000000E+000	0.0000000E+000	-60.4625	0.0000000E+000	0.0000000E+000	0.0000000E+000	-29.5375	0.0000000E+000	0.0000000E+000	0.0000000E+000	29.5375	1.7648	60.4625	-1.39838e-05
[...]
631.01	5.05678	15.2722	16.0876	-71.6797	795.774	0.441101	0.00130119	16.5152	14.8834	1	38	0.00456237	0.000283596	0	-0.000247219	1.64606	0.646911	27.6258	3.13993e-05	2.39049e-05	2.33871e-05	5.06858e-05	2.70905e-05	1.08431e-05	0.773749	0.243708	10.7666	1.15396e-06	1.1323e-06	6.3125e-07	1.07484e-06	2.76828e-07	4.40911e-07	0.0195386	0.0590092	0.0621598	71.6797	14883.4	4928.07	15678.1	-18.3203	0.0000000E+000	0.0000000E+000	0.0000000E+000	18.3203	0.0000000E+000	0.0000000E+000	0.0000000E+000	-18.3203	0.0000000E+000	0.0000000E+000	0.0000000E+000	-71.6797	0.0000000E+000	0.0000000E+000	0.0000000E+000	71.6797	0.331111	18.3203	4.38043e-07
398.089	6.07973	23.1424	23.9276	-75.2804	797.484	0.441079	0.000679301	17.2756	16.1602	1	38	0.00492627	0.000205882	0	-0.000247236	1.12715	0.665476	24.7564	1.55017e-05	2.16207e-05	2.68103e-05	1.61393e-05	1.52708e-05	3.20628e-05	1.32627	0.331385	14.5022	1.53918e-06	5.40734e-07	9.20308e-07	1.70704e-06	8.22127e-07	5.19963e-07	0.010619	0.0404211	0.0417927	75.2804	16160.2	4245.46	16708.6	-14.7196	0.0000000E+000	0.0000000E+000	0.0000000E+000	14.7196	0.0000000E+000	0.0000000E+000	0.0000000E+000	-14.7196	0.0000000E+000	0.0000000E+000	0.0000000E+000	-75.2804	0.0000000E+000	0.0000000E+000	0.0000000E+000	75.2804	0.26271	14.7196	1.26719e-07
251.206	7.92309	35.7906	36.6571	-77.5176	799.221	0.441086	0.00142764	17.7019	16.875	1	39	0.0050509	0.000137788	0	-0.000246127	1.26522	0.300695	24.1785	2.36459e-05	2.32273e-05	1.67521e-05	3.72742e-05	1.70379e-05	2.44446e-05	0.969944	0.132699	8.91344	8.09122e-07	4.35979e-07	7.30691e-08	8.44901e-07	2.74852e-07	2.92536e-07	0.00589627	0.026635	0.0272798	77.5176	16875	3735.66	17283.5	-12.4824	0.0000000E+000	0.0000000E+000	0.0000000E+000	12.4824	0.0000000E+000	0.0000000E+000	0.0000000E+000	-12.4824	0.0000000E+000	0.0000000E+000	0.0000000E+000	-77.5176	0.0000000E+000	0.0000000E+000	0.0000000E+000	77.5176	0.221373	12.4825	5.18625e-07
158.529	10.8146	54.8141	55.8708	-78.8391	800.714	0.441067	0.0015499	18.3155	17.6293	1	39	0.00497555	8.90547e-05	0	-0.000245629	1.26995	0.539306	25.2172	2.97373e-05	1.95411e-05	1.92366e-05	2.72494e-05	3.20982e-05	1.26238e-05	1.00834	0.380205	13.6907	4.05356e-07	3.67893e-07	2.09317e-07	4.89263e-07	2.9693e-07	2.38001e-07	0.00346452	0.0175599	0.0178984	78.8391	17629.3	3478.2	17969.1	-11.1609	0.0000000E+000	0.0000000E+000	0.0000000E+000	11.1609	0.0000000E+000	0.0000000E+000	0.0000000E+000	-11.1609	0.0000000E+000	0.0000000E+000	0.0000000E+000	-78.8391	0.0000000E+000	0.0000000E+000	0.0000000E+000	78.8391	0.197297	11.1609	1.73689e-07
99.9682	16.4065	83.3446	84.944	-78.8636	802.186	0.441079	0.00111713	19.1021	18.3895	1	39	0.00491679	5.78827e-05	0	-0.00024512	1.33085	0.781878	25.0819	1.805e-05	1.72966e-05	3.12752e-05	2.68014e-05	2.25166e-05	3.1799e-05	0.985698	0.503875	21.13	2.90575e-07	1.84485e-07	1.34937e-07	2.45057e-07	2.67265e-07	1.90424e-07	0.00227379	0.0115508	0.0117725	78.8636	18389.5	3620	18742.4	-11.1364	0.0000000E+000	0.0000000E+000	0.0000000E+000	11.1364	0.0000000E+000	0.0000000E+000	0.0000000E+000	-11.1364	0.0000000E+000	0.0000000E+000	0.0000000E+000	-78.8636	0.0000000E+000	0.0000000E+000	0.0000000E+000	78.8636	0.196852	11.1364	1.96738e-07