Folder: Thesis/Python/Data/GoldElectrode/240322/Carbon

File: 240322-CVEIS-5mM_Fe2Fe3-1M_H2SO4-0000RPM-Ag_AgCl_BLF8-GC_RDE_01_CV_C15.mpt
EC-Lab ASCII FILE
Nb header lines : 59

Cyclic Voltammetry

Run on channel : 15 (SN 19485)
User :
Electrode connection : standard
Potential control : Ewe
Ewe ctrl range : min = -1.00 V, max = 1.00 V
Ewe,I filtering : <None>
Safety Limits :
	Do not start on E overload
Channel : Floating
Acquisition started on : 03/22/2024 12:30:07.620
Loaded Setting File :  C:\Data\mathias\GoldElectrode\240321-CVEIS-5mM_Fe2Fe3-1M_H2SO4-0000RPM-Ag_AgCl_BLF8-Au_RDE.mps
Saved on :
	File : 240321-CVEIS-5mM_Fe2Fe3-1M_H2SO4-0000RPM-Ag_AgCl_BLF8-GC_RDE_01_CV_C15.mpr
	Directory : C:\Data\mathias\GoldElectrode\
	Host : 192.168.0.1
Device : VMP-300 (SN 0826)
Address : USB
EC-Lab for windows v11.52 (software)
Internet server v11.52 (firmware)
Command interpretor v11.52 (firmware)
Electrode material :
Initial state :
Electrolyte :
Comments :
Cable : special
Electrode surface area : 0.001 cm²
Characteristic mass : 0.001 g
Equivalent Weight : 0.000 g/eq.
Density : 0.000 g/cm3
Volume (V) : 0.001 cm³
Cycle Definition : Charge/Discharge alternance
Ei (V)              0.000
vs.                 Eoc
dE/dt               20.000
dE/dt unit          mV/s
E1 (V)              0.700
vs.                 Ref
Step percent        50
N                   10
E range min (V)     -1.000
E range max (V)     1.000
I Range             Auto
I Range min         Unset
I Range max         Unset
I Range init        Unset
Bandwidth           8
E2 (V)              0.000
vs.                 Ref
nc cycles           1
Reverse Scan        1
Ef (V)              0.000
vs.                 Eoc

mode	ox/red	error	control changes	counter inc.	time/s	control/V	Ewe/V	<I>/mA	cycle number	(Q-Qo)/C	I Range	step time/s	P/W
2	1	1	1	0	0.000000000000000E+000	0.442567	0.442447	0.00036739	1	0.0000000E+000	43	0.000000000000000E+000	1.62551e-07
2	1	0	1	0	1.2182	0.46693	0.466878	0.00175744	1	1.24902e-06	42	1.2044	8.20509e-07
2	1	0	1	0	2.4177	0.490919	0.490734	0.00350063	1	4.35198e-06	42	2.4039	1.71788e-06
2	1	0	1	0	3.6171	0.514907	0.514605	0.00603866	1	9.97586e-06	42	3.6033	3.10752e-06
2	1	0	1	0	4.8165	0.538896	0.538784	0.00985484	1	1.9356e-05	42	4.8027	5.30963e-06
2	1	0	1	0	6.046	0.563484	0.563259	0.0156345	1	3.48409e-05	41	6.0322	8.80624e-06
2	1	0	1	0	7.2454	0.587473	0.58689	0.0234807	1	5.81573e-05	41	7.2316	1.37806e-05
2	1	0	1	0	8.4448	0.611462	0.610965	0.0331389	1	9.20412e-05	41	8.431	2.02467e-05
2	1	0	1	0	9.6443	0.63545	0.635178	0.0434814	1	0.000138063	41	9.6305	2.76184e-05
2	1	0	1	0	10.8437	0.659439	0.659101	0.0531951	1	0.000196229	41	10.8299	3.50609e-05
2	1	0	1	0	12.0431	0.683428	0.683177	0.0610094	1	0.000264992	41	12.0293	4.16802e-05
2	1	0	1	0	13.2106	0.693223	0.692792	0.0561858	1	0.000337585	41	13.1968	3.89251e-05
2	1	0	1	0	14.41	0.669234	0.668866	0.0395174	1	0.000393838	41	14.3962	2.64318e-05
2	1	0	1	0	15.6095	0.645246	0.644708	0.0290178	1	0.000434516	41	15.5957	1.8708e-05
2	1	0	1	0	16.8089	0.621257	0.621057	0.0210711	1	0.00046428	41	16.7951	1.30864e-05
2	1	0	1	0	18.0083	0.597268	0.597019	0.0147568	1	0.000485543	41	17.9945	8.81012e-06
2	1	0	1	0	19.2078	0.57328	0.573027	0.00987638	1	0.000500119	41	19.194	5.65943e-06
2	1	0	1	0	20.4072	0.549291	0.548699	0.00626702	1	0.000509618	41	20.3934	3.43871e-06
2	1	0	1	0	21.6366	0.524703	0.52427	0.00358278	1	0.000515553	42	21.6228	1.87834e-06
2	1	0	1	0	22.836	0.500716	0.500333	0.00176424	1	0.000518701	42	22.8222	8.82708e-07
2	1	0	1	0	24.0655	0.476126	0.476089	0.000365167	1	0.000519977	43	24.0517	1.73852e-07
2	0	0	1	0	25.2649	0.452137	0.451814	-0.000786332	1	0.000519715	43	0.7996	-3.55276e-07
2	0	0	1	0	26.4943	0.427549	0.427196	-0.00196445	1	0.000518039	42	2.029	-8.39206e-07
2	0	0	1	0	27.6938	0.40356	0.403354	-0.00332808	1	0.000514892	42	3.2285	-1.34239e-06
2	0	0	1	0	28.8932	0.379571	0.379308	-0.00513242	1	0.00050987	42	4.4279	-1.94677e-06
2	0	0	1	0	30.0926	0.355583	0.355257	-0.0076539	1	0.000502285	42	5.6273	-2.7191e-06
2	0	0	1	0	31.322	0.330994	0.330592	-0.0112908	1	0.000490737	41	6.8567	-3.73266e-06
2	0	0	1	0	32.5215	0.307006	0.30673	-0.0164066	1	0.000474237	41	8.0562	-5.03239e-06
2	0	0	1	0	33.7209	0.283017	0.282641	-0.0234267	1	0.000450508	41	9.2556	-6.62136e-06
2	0	0	1	0	34.9203	0.259028	0.258677	-0.0327138	1	0.000417028	41	10.455	-8.46233e-06
2	0	0	1	0	36.1198	0.23504	0.234675	-0.044295	1	0.000371011	41	11.6545	-1.03949e-05
2	0	0	1	0	37.3192	0.211051	0.210867	-0.0576091	1	0.000309973	41	12.8539	-1.21478e-05
2	0	0	1	0	38.5186	0.187062	0.186727	-0.0713554	1	0.000232523	41	14.0533	-1.3324e-05
2	0	0	1	0	39.7181	0.163074	0.162699	-0.0835933	1	0.000139276	41	15.2528	-1.36006e-05
2	0	0	1	0	40.9175	0.139085	0.138641	-0.092346	1	3.32986e-05	41	16.4522	-1.2803e-05
2	0	0	1	0	42.1169	0.115096	0.114712	-0.0965221	1	-8.04782e-05	41	17.6516	-1.10723e-05
2	0	0	1	0	43.3164	0.0911079	0.0908547	-0.0962981	1	-0.00019655	41	18.8511	-8.74913e-06
2	0	0	1	0	44.5158	0.0671192	0.0667586	-0.0928929	1	-0.000310296	41	20.0505	-6.20139e-06
2	0	0	1	0	45.7152	0.0431306	0.042821	-0.0878639	1	-0.00041884	41	21.2499	-3.76242e-06
2	0	0	1	0	46.9147	0.0191419	0.0188895	-0.082408	1	-0.000521003	41	22.4494	-1.55664e-06
2	0	0	1	1	48.0594	0.00374921	0.00352988	-0.0740117	1	-0.000612081	41	23.5941	-2.61253e-07
2	0	0	1	1	49.2588	0.0277379	0.0275	-0.0628858	1	-0.000693355	41	24.7935	-1.72936e-06
2	0	0	1	1	50.4583	0.0517265	0.0515146	-0.0555608	1	-0.00076418	41	25.993	-2.86219e-06
2	0	0	1	1	51.6577	0.0757151	0.0756074	-0.049259	1	-0.00082691	41	27.1924	-3.72434e-06
2	0	0	1	1	52.8571	0.0997038	0.0993181	-0.0434058	1	-0.000882406	41	28.3918	-4.31098e-06
2	0	0	1	1	54.0566	0.123692	0.123305	-0.0377659	1	-0.00093102	41	29.5913	-4.65671e-06
2	0	0	1	1	55.256	0.147681	0.147414	-0.0322517	1	-0.000972944	41	30.7907	-4.75435e-06
2	0	0	1	1	56.4554	0.17167	0.171303	-0.0269204	1	-0.00100836	41	31.9901	-4.61154e-06
2	0	0	1	1	57.6549	0.195658	0.195402	-0.0219058	1	-0.00103757	41	33.1896	-4.28044e-06
2	0	0	1	1	58.8543	0.219647	0.219335	-0.0173155	1	-0.00106101	41	34.389	-3.7979e-06
2	0	0	1	1	60.0537	0.243636	0.243425	-0.0133028	1	-0.00107927	41	35.5884	-3.23824e-06
2	0	0	1	1	61.2532	0.267624	0.267325	-0.009894	1	-0.00109308	41	36.7879	-2.64492e-06
2	0	0	1	1	62.4526	0.291613	0.291466	-0.00710339	1	-0.00110316	41	37.9873	-2.0704e-06
2	0	0	1	1	63.652	0.315602	0.315371	-0.00486745	1	-0.00111024	41	39.1867	-1.53505e-06
2	0	0	1	1	64.8814	0.34019	0.339879	-0.00305624	1	-0.00111504	42	40.4161	-1.03875e-06
2	0	0	1	1	66.0809	0.364179	0.363885	-0.00166559	1	-0.00111783	42	41.6156	-6.06082e-07
2	0	0	1	1	67.2803	0.388167	0.387756	-0.000503998	1	-0.00111911	42	42.815	-1.95428e-07
2	1	0	1	1	68.5697	0.413955	0.41355	0.000656592	1	-0.00111902	43	0.6997	2.71534e-07
2	1	0	1	1	69.7991	0.438543	0.438407	0.00186438	1	-0.00111749	42	1.9291	8.1736e-07
2	1	0	1	1	70.9586	0.461732	0.461228	0.00333137	2	-0.00111452	42	3.0886	1.53652e-06
2	1	0	1	1	72.158	0.485721	0.485353	0.00548041	2	-0.00110931	42	4.288	2.65993e-06
2	1	0	1	1	73.3574	0.50971	0.509419	0.00870267	2	-0.00110094	42	5.4874	4.43331e-06
2	1	0	1	1	74.5868	0.534297	0.533991	0.0137104	2	-0.00108735	41	6.7168	7.32123e-06
2	1	0	1	1	75.7863	0.558287	0.557934	0.0209108	2	-0.00106679	41	7.9163	1.16668e-05
2	1	0	1	1	76.9857	0.582275	0.581761	0.0307894	2	-0.00103599	41	9.1157	1.79121e-05
2	1	0	1	1	78.1852	0.606266	0.605997	0.0428124	2	-0.000991947	41	10.3152	2.59442e-05
2	1	0	1	1	79.3846	0.630253	0.629851	0.0556227	2	-0.000932831	41	11.5146	3.5034e-05
[...]
2	1	0	1	1	90.1575	0.554289	0.554087	0.00830871	2	-0.000450752	41	22.2875	4.60375e-06
2	1	0	1	1	91.357	0.5303	0.529871	0.0050073	2	-0.00044294	41	23.487	2.65322e-06
2	1	0	1	1	92.5864	0.505712	0.505405	0.0025993	2	-0.000438367	42	24.7164	1.3137e-06
2	1	0	1	1	93.7858	0.481723	0.481489	0.000941837	2	-0.000436285	42	25.9158	4.53484e-07
2	0	0	1	1	95.0152	0.457135	0.456663	-0.000423507	2	-0.000435984	43	0.3748	-1.934e-07
2	0	0	1	1	96.2446	0.432546	0.432118	-0.00169558	2	-0.000437276	42	1.6042	-7.32691e-07
2	0	0	1	1	97.4441	0.408558	0.40835	-0.00308248	2	-0.000440117	42	2.8037	-1.25873e-06
2	0	0	1	1	98.6435	0.384569	0.384368	-0.00485069	2	-0.000444824	42	4.0031	-1.86445e-06
2	0	0	1	1	99.8429	0.36058	0.360085	-0.00727001	2	-0.000452012	42	5.2025	-2.61782e-06
2	0	0	1	1	101.042	0.336592	0.33629	-0.0106877	2	-0.000462667	42	6.402	-3.59418e-06
2	0	0	1	1	102.272	0.312003	0.311651	-0.0156483	2	-0.000478684	41	7.6314	-4.87681e-06
2	0	0	1	1	103.471	0.288015	0.287541	-0.0223102	2	-0.000501271	41	8.8308	-6.41509e-06
2	0	0	1	1	104.671	0.264026	0.263695	-0.0311882	2	-0.000533185	41	10.0303	-8.22418e-06
2	0	0	1	1	105.87	0.240037	0.239817	-0.0423578	2	-0.000577141	41	11.2297	-1.01581e-05
2	0	0	1	1	107.069	0.216049	0.21585	-0.0553296	2	-0.000635637	41	12.4291	-1.19429e-05
2	0	0	1	1	108.269	0.19206	0.191781	-0.0688267	2	-0.00071018	41	13.6286	-1.31997e-05
2	0	0	1	1	109.468	0.168071	0.167657	-0.0810943	2	-0.000800366	41	14.828	-1.3596e-05
2	0	0	1	1	110.668	0.144083	0.143562	-0.0900662	2	-0.000903459	41	16.0274	-1.29301e-05
2	0	0	1	1	111.867	0.120095	0.119858	-0.0946484	2	-0.00101474	41	17.2268	-1.13443e-05
2	0	0	1	1	113.067	0.0961055	0.0959355	-0.0948732	2	-0.00112885	41	18.4263	-9.10171e-06
2	0	0	1	1	114.266	0.0721169	0.0718421	-0.0919056	2	-0.00124115	41	19.6257	-6.60269e-06
2	0	0	1	1	115.466	0.0481269	0.0478745	-0.0871458	2	-0.00134869	41	20.8252	-4.17206e-06
2	0	0	1	1	116.665	0.0241396	0.0238176	-0.0819155	2	-0.00145013	41	22.0246	-1.95103e-06
2	0	0	1	1	117.861	0.000224876	5.35802e-05	-0.0768989	2	-0.00154506	41	23.2203	-4.12025e-09
2	0	0	1	0	119.009	0.0227411	0.0224849	-0.0639205	2	-0.0016243	41	24.3688	-1.43725e-06
2	0	0	1	0	120.209	0.0467289	0.0465054	-0.0565379	2	-0.00169629	41	25.5682	-2.62932e-06
2	0	0	1	0	121.408	0.0707175	0.070516	-0.0503564	2	-0.00176026	41	26.7676	-3.55093e-06
2	0	0	1	0	122.607	0.0947053	0.0945309	-0.044642	2	-0.00181714	41	27.967	-4.22005e-06
2	0	0	1	0	123.807	0.118695	0.118209	-0.0390876	2	-0.00186729	41	29.1665	-4.6205e-06
2	0	0	1	0	125.006	0.142683	0.14239	-0.033676	2	-0.00191086	41	30.3659	-4.79513e-06
2	0	0	1	0	126.206	0.166674	0.166226	-0.0283605	2	-0.00194799	41	31.5654	-4.71424e-06
2	0	0	1	0	127.405	0.190661	0.190444	-0.0233131	2	-0.00197889	41	32.7648	-4.43985e-06
2	0	0	1	0	128.605	0.214649	0.21425	-0.0185889	2	-0.00200392	41	33.9642	-3.98268e-06
2	0	0	1	0	129.804	0.238638	0.238452	-0.0144168	2	-0.00202362	41	35.1636	-3.43772e-06
2	0	0	1	0	131.003	0.262627	0.262262	-0.0108334	2	-0.00203866	41	36.3631	-2.8412e-06
2	0	0	1	0	132.203	0.286615	0.286361	-0.00785846	2	-0.00204976	41	37.5625	-2.25035e-06
2	0	0	1	0	133.402	0.310604	0.310291	-0.00544494	2	-0.00205764	41	38.7619	-1.68952e-06
2	0	0	1	0	134.632	0.335192	0.334861	-0.00349457	2	-0.00206307	42	39.9914	-1.1702e-06
2	0	0	1	0	135.831	0.359181	0.359099	-0.00199594	2	-0.00206633	42	41.1908	-7.16741e-07
2	0	0	1	0	137.031	0.38317	0.382839	-0.000758432	2	-0.00206796	42	42.3902	-2.90357e-07
2	1	0	1	0	138.32	0.408957	0.408675	0.000449752	2	-0.00206815	43	0.4498	1.83803e-07
2	1	0	1	0	139.549	0.433546	0.433324	0.0016743	2	-0.00206687	42	1.6792	7.25514e-07
2	1	0	0	0	139.941	0.441417	0.440825	0.00205959	2	-0.00206613	42	2.0708	9.0792e-07

File: 240322-CVEIS-5mM_Fe2Fe3-1M_H2SO4-0000RPM-Ag_AgCl_BLF8-GC_RDE_02_PEIS_C15.mpt
EC-Lab ASCII FILE
Nb header lines : 65

Potentio Electrochemical Impedance Spectroscopy

Run on channel : 15 (SN 19485)
User :
Electrode connection : standard
Potential control : Ewe
Ewe ctrl range : min = -1.00 V, max = 1.00 V
Ewe,I filtering : <None>
Safety Limits :
	Do not start on E overload
Channel : Floating
Acquisition started on : 03/22/2024 12:30:07.620
Loaded Setting File :  C:\Data\mathias\GoldElectrode\240321-CVEIS-5mM_Fe2Fe3-1M_H2SO4-0000RPM-Ag_AgCl_BLF8-Au_RDE.mps
Saved on :
	File : 240321-CVEIS-5mM_Fe2Fe3-1M_H2SO4-0000RPM-Ag_AgCl_BLF8-GC_RDE_02_PEIS_C15.mpr
	Directory : C:\Data\mathias\GoldElectrode\
	Host : 192.168.0.1
Device : VMP-300 (SN 0826)
Address : USB
EC-Lab for windows v11.52 (software)
Internet server v11.52 (firmware)
Command interpretor v11.52 (firmware)
Electrode material :
Initial state :
Electrolyte :
Comments :
Cable : special
Electrode surface area : 0.001 cm²
Characteristic mass : 0.001 g
Equivalent Weight : 0.000 g/eq.
Density : 0.000 g/cm3
Volume (V) : 0.001 cm³
Cycle Definition : Charge/Discharge alternance
Mode                Multi sine
E (V)               0.0000
vs.                 Eoc
tE (h:m:s)          0:00:0.0000
record              0
dI                  0.000
unit dI             mA
dt (s)              0.000
fi                  400.000
unit fi             kHz
ff                  100.000
unit ff             mHz
Nd                  10
Points              per decade
spacing             Logarithmic
Va (mV)             5.0
pw                  0.10
Na                  3
corr                0
E range min (V)     -1.000
E range max (V)     1.000
I Range             Auto
Bandwidth           8
nc cycles           2
goto Ns'            0
nr cycles           0
inc. cycle          1

freq/Hz	Re(Z)/Ohm	-Im(Z)/Ohm	|Z|/Ohm	Phase(Z)/deg	time/s	<Ewe>/V	<I>/mA	Cs/µF	Cp/µF	cycle number	I Range	|Ewe|/V	|I|/A	Ns	(Q-Qo)/mA.h	Re(Y)/Ohm-1	Im(Y)/Ohm-1	|Y|/Ohm-1	Phase(Y)/deg	Re(C)/nF	Im(C)/nF	|C|/nF	Phase(C)/deg	Re(M)	Im(M)	|M|	Phase(M)/deg	Re(Permittivity)	Im(Permittivity)	|Permittivity|	Phase(Permittivity)/deg	Re(Resistivity)/Ohm.cm	Im(Resistivity)/Ohm.cm	|Resistivity|/Ohm.cm	Phase(Resistivity)/deg	Re(Conductivity)/mS/cm	Im(Conductivity)/mS/cm	|Conductivity|/mS/cm	Phase(Conductivity)/deg	Tan(Delta)	Loss Angle(Delta)/deg	dq/mA.h
399996	3.13037	1.24481	3.36879	-21.6855	142.782	0.441228	-0.015931	0.319641	0.0436433	1	38	0.00458292	0.0013604	0	-2.55239e-06	0.275834	0.109687	0.296842	21.6855	43.6433	109.752	118.111	-68.3145	0.0000000E+000	0.0000000E+000	0.0000000E+000	68.3145	0.0000000E+000	0.0000000E+000	0.0000000E+000	-68.3145	0.0000000E+000	0.0000000E+000	0.0000000E+000	-21.6855	0.0000000E+000	0.0000000E+000	0.0000000E+000	21.6855	2.51474	68.3145	-2.55239e-06
50326.6	3.06871	0.78595	3.16776	-14.3656	148.178	0.441246	-0.0755462	4.02372	0.247692	1	37	0.00516058	0.00162909	0	-0.000112944	0.30581	0.0783231	0.31568	14.3656	247.692	967.105	998.32	-75.6344	0.0000000E+000	0.0000000E+000	0.0000000E+000	75.6344	0.0000000E+000	0.0000000E+000	0.0000000E+000	-75.6344	0.0000000E+000	0.0000000E+000	0.0000000E+000	-14.3656	0.0000000E+000	0.0000000E+000	0.0000000E+000	14.3656	3.90446	75.6344	-8.73033e-06
6332.63	3.76511	4.65053	5.9836	-51.0061	153.726	0.441117	-0.006383	5.40423	3.26447	1	38	0.00524689	0.000876878	0	-0.000184278	0.10516	0.12989	0.167123	51.0061	3264.47	2642.95	4200.23	-38.9939	0.0000000E+000	0.0000000E+000	0.0000000E+000	38.9939	0.0000000E+000	0.0000000E+000	0.0000000E+000	-38.9939	0.0000000E+000	0.0000000E+000	0.0000000E+000	-51.0061	0.0000000E+000	0.0000000E+000	0.0000000E+000	51.0061	0.809609	38.9939	-4.98237e-07
796.787	7.72077	30.0524	31.0284	-75.5917	160.099	0.441127	-0.00505918	6.64658	6.23505	1	38	0.0048186	0.000155297	0	-0.000194055	0.00801942	0.0312149	0.0322286	75.5917	6235.04	1601.85	6437.52	-14.4083	0.0000000E+000	0.0000000E+000	0.0000000E+000	14.4083	0.0000000E+000	0.0000000E+000	0.0000000E+000	-14.4083	0.0000000E+000	0.0000000E+000	0.0000000E+000	-75.5917	0.0000000E+000	0.0000000E+000	0.0000000E+000	75.5917	0.25691	14.4083	-1.15717e-06
100.224	36.7558	195.582	199.005	-79.3565	166.501	0.441133	2.0285e-05	8.11929	7.84232	1	39	0.00476159	2.39269e-05	0	-0.000194156	0.000928102	0.00493853	0.00502499	79.3565	7842.32	1473.81	7979.61	-10.6435	0.0000000E+000	0.0000000E+000	0.0000000E+000	10.6435	0.0000000E+000	0.0000000E+000	0.0000000E+000	-10.6435	0.0000000E+000	0.0000000E+000	0.0000000E+000	-79.3565	0.0000000E+000	0.0000000E+000	0.0000000E+000	79.3565	0.187931	10.6435	7.86006e-09
12.6144	337.244	1218.38	1264.19	-74.528	172.972	0.441137	0.000177716	10.3556	9.61862	1	40	0.00474573	3.75398e-06	0	-0.000193745	0.000211019	0.000762355	0.000791021	74.528	9618.62	2662.42	9980.29	-15.472	0.0000000E+000	0.0000000E+000	0.0000000E+000	15.472	0.0000000E+000	0.0000000E+000	0.0000000E+000	-15.472	0.0000000E+000	0.0000000E+000	0.0000000E+000	-74.528	0.0000000E+000	0.0000000E+000	0.0000000E+000	74.528	0.276798	15.472	4.0057e-08
1.60158	3854.36	5007.38	6319.02	-52.4132	205.126	0.441098	4.82276e-05	19.8455	12.4619	1	41	0.00500538	7.92114e-07	0	-0.000192992	9.65281e-05	0.000125404	0.000158253	52.4132	12461.9	9592.37	15726.2	-37.5868	0.0000000E+000	0.0000000E+000	0.0000000E+000	37.5868	0.0000000E+000	0.0000000E+000	0.0000000E+000	-37.5868	0.0000000E+000	0.0000000E+000	0.0000000E+000	-52.4132	0.0000000E+000	0.0000000E+000	0.0000000E+000	52.4132	0.769737	37.5868	0.000000000000000E+000
0.100099	15504.5	4777.17	16223.8	-17.1248	205.132	0.441098	4.82276e-05	332.829	28.8574	1	41	0.005003	3.08374e-07	0	-0.000192992	5.89052e-05	1.81495e-05	6.16379e-05	17.1248	28857.4	93658.1	98003	-72.8752	0.0000000E+000	0.0000000E+000	0.0000000E+000	72.8752	0.0000000E+000	0.0000000E+000	0.0000000E+000	-72.8752	0.0000000E+000	0.0000000E+000	0.0000000E+000	-17.1248	0.0000000E+000	0.0000000E+000	0.0000000E+000	17.1248	3.24555	72.8752	0.000000000000000E+000
63362.9	3.05005	0.644101	3.11732	-11.9244	212.409	0.441235	-0.0423437	3.8997	0.166485	2	37	0.00518883	0.00166452	0	-0.000232563	0.313866	0.0662813	0.320788	11.9244	166.485	788.369	805.756	-78.0757	0.0000000E+000	0.0000000E+000	0.0000000E+000	78.0757	0.0000000E+000	0.0000000E+000	0.0000000E+000	-78.0757	0.0000000E+000	0.0000000E+000	0.0000000E+000	-11.9244	0.0000000E+000	0.0000000E+000	0.0000000E+000	11.9244	4.73536	78.0757	-3.49207e-06
7967.67	3.64576	3.86252	5.31137	-46.6537	217.749	0.441107	-0.00353796	5.17152	2.73494	2	38	0.00521631	0.000982104	0	-0.000277395	0.129233	0.136917	0.188275	46.6537	2734.94	2581.45	3760.82	-43.3463	0.0000000E+000	0.0000000E+000	0.0000000E+000	43.3463	0.0000000E+000	0.0000000E+000	0.0000000E+000	-43.3463	0.0000000E+000	0.0000000E+000	0.0000000E+000	-46.6537	0.0000000E+000	0.0000000E+000	0.0000000E+000	46.6537	0.94388	43.3463	-1.13778e-06
1002.75	6.83332	24.7555	25.6813	-74.5688	224.199	0.441124	-0.00283976	6.41142	5.9575	2	38	0.00468613	0.000182472	0	-0.000285945	0.0103609	0.0375351	0.0389388	74.5688	5957.5	1644.46	6180.3	-15.4312	0.0000000E+000	0.0000000E+000	0.0000000E+000	15.4312	0.0000000E+000	0.0000000E+000	0.0000000E+000	-15.4312	0.0000000E+000	0.0000000E+000	0.0000000E+000	-74.5688	0.0000000E+000	0.0000000E+000	0.0000000E+000	74.5688	0.276032	15.4312	-7.31073e-07
[...]
79767.3	3.03926	0.544437	3.08764	-10.1559	276.523	0.441251	-0.0317539	3.66478	0.113943	3	37	0.00520508	0.00168578	0	-0.000322732	0.318797	0.0571076	0.323872	10.1559	113.943	636.077	646.202	-79.8441	0.0000000E+000	0.0000000E+000	0.0000000E+000	79.8441	0.0000000E+000	0.0000000E+000	0.0000000E+000	-79.8441	0.0000000E+000	0.0000000E+000	0.0000000E+000	-10.1559	0.0000000E+000	0.0000000E+000	0.0000000E+000	10.1559	5.5824	79.8441	-4.1882e-06
10039.3	3.52565	3.16846	4.74019	-41.9456	281.648	0.441237	-0.00238542	5.00341	2.23549	3	38	0.00494305	0.0010428	0	-0.000349918	0.156909	0.141012	0.210962	41.9456	2235.49	2487.5	3344.41	-48.0544	0.0000000E+000	0.0000000E+000	0.0000000E+000	48.0544	0.0000000E+000	0.0000000E+000	0.0000000E+000	-48.0544	0.0000000E+000	0.0000000E+000	0.0000000E+000	-41.9456	0.0000000E+000	0.0000000E+000	0.0000000E+000	41.9456	1.11273	48.0544	9.12754e-07
1262.98	6.15198	20.3792	21.2875	-73.2022	288.043	0.441097	-0.00245247	6.18354	5.66711	3	38	0.00476072	0.000223639	0	-0.00035606	0.0135758	0.0449714	0.0469759	73.2022	5667.11	1710.76	5919.7	-16.7978	0.0000000E+000	0.0000000E+000	0.0000000E+000	16.7978	0.0000000E+000	0.0000000E+000	0.0000000E+000	-16.7978	0.0000000E+000	0.0000000E+000	0.0000000E+000	-73.2022	0.0000000E+000	0.0000000E+000	0.0000000E+000	73.2022	0.301876	16.7978	-4.38502e-07
158.831	24.1377	133.757	135.918	-79.7706	294.452	0.441157	-0.000154166	7.49149	7.25522	3	39	0.00461433	3.39494e-05	0	-0.000356575	0.0013066	0.00724044	0.00735739	79.7706	7255.22	1309.27	7372.41	-10.2294	0.0000000E+000	0.0000000E+000	0.0000000E+000	10.2294	0.0000000E+000	0.0000000E+000	0.0000000E+000	-10.2294	0.0000000E+000	0.0000000E+000	0.0000000E+000	-79.7706	0.0000000E+000	0.0000000E+000	0.0000000E+000	79.7706	0.180459	10.2294	-2.3254e-08
19.9808	202.835	846.563	870.523	-76.526	300.834	0.441104	4.47201e-05	9.40909	8.89826	3	40	0.00459412	5.27742e-06	0	-0.000356637	0.000267659	0.00111712	0.00114873	76.526	8898.26	2132.01	9150.11	-13.474	0.0000000E+000	0.0000000E+000	0.0000000E+000	13.474	0.0000000E+000	0.0000000E+000	0.0000000E+000	-13.474	0.0000000E+000	0.0000000E+000	0.0000000E+000	-76.526	0.0000000E+000	0.0000000E+000	0.0000000E+000	76.526	0.239598	13.474	-1.83407e-09
2.50247	2442.93	4084.63	4759.42	-59.1172	334.472	0.44112	7.41094e-06	15.5704	11.4682	3	41	0.00500161	1.05089e-06	0	-0.000356777	0.000107846	0.00018032	0.00021011	59.1172	11468.2	6858.91	13362.8	-30.8828	0.0000000E+000	0.0000000E+000	0.0000000E+000	30.8828	0.0000000E+000	0.0000000E+000	0.0000000E+000	-30.8828	0.0000000E+000	0.0000000E+000	0.0000000E+000	-59.1172	0.0000000E+000	0.0000000E+000	0.0000000E+000	59.1172	0.59808	30.8828	0.000000000000000E+000
0.300296	11374.6	5329.14	12561.1	-25.1037	334.479	0.44112	7.41094e-06	99.4519	17.9008	3	41	0.00501273	3.99068e-07	0	-0.000356777	7.20909e-05	3.37755e-05	7.96109e-05	25.1037	17900.8	38207.7	42193.2	-64.8963	0.0000000E+000	0.0000000E+000	0.0000000E+000	64.8963	0.0000000E+000	0.0000000E+000	0.0000000E+000	-64.8963	0.0000000E+000	0.0000000E+000	0.0000000E+000	-25.1037	0.0000000E+000	0.0000000E+000	0.0000000E+000	25.1037	2.13441	64.8963	0.000000000000000E+000
0.100099	15477.7	3783.82	15933.5	-13.7376	334.48	0.44112	7.41094e-06	420.205	23.6972	3	41	0.00500313	3.14e-07	0	-0.000356777	6.09653e-05	1.49041e-05	6.27607e-05	13.7376	23697.2	96933.7	99788.3	-76.2624	0.0000000E+000	0.0000000E+000	0.0000000E+000	76.2624	0.0000000E+000	0.0000000E+000	0.0000000E+000	-76.2624	0.0000000E+000	0.0000000E+000	0.0000000E+000	-13.7376	0.0000000E+000	0.0000000E+000	0.0000000E+000	13.7376	4.09051	76.2624	0.000000000000000E+000