Folder: Thesis/Python/Data/GoldElectrode/240322/Carbon (part 4)

File: 240322-CVEIS-Activation-5mM_Fe2Fe3-1M_H2SO4-0000RPM-Ag_AgCl_BLF8-GC_RDE_08_PEIS_C15.mpt
EC-Lab ASCII FILE
Nb header lines : 66

Potentio Electrochemical Impedance Spectroscopy

Run on channel : 15 (SN 19485)
User :
Electrode connection : standard
Potential control : Ewe
Ewe ctrl range : min = -2.50 V, max = 2.50 V
Ewe,I filtering : 50 kHz
Safety Limits :
	Do not start on E overload
Channel : Floating
Acquisition started on : 03/22/2024 12:39:19.547
Loaded Setting File :  C:\Data\mathias\GoldElectrode\240322-CVEIS-Activation-5mM_Fe2Fe3-1M_H2SO4-0000RPM-Ag_AgCl_BLF8-Au_RDE.mps
Saved on :
	File : 240322-CVEIS-Activation-5mM_Fe2Fe3-1M_H2SO4-0000RPM-Ag_AgCl_BLF8-GC_RDE_08_PEIS_C15.mpr
	Directory : C:\Data\mathias\GoldElectrode\
	Host : 192.168.0.1
Device : VMP-300 (SN 0826)
Address : USB
EC-Lab for windows v11.52 (software)
Internet server v11.52 (firmware)
Command interpretor v11.52 (firmware)
Electrode material :
Initial state :
Electrolyte :
Comments :
Cable : special
Electrode surface area : 0.001 cm²
Characteristic mass : 0.001 g
Equivalent Weight : 0.000 g/eq.
Density : 0.000 g/cm3
Volume (V) : 0.001 cm³
Record EIS quality indicators
Cycle Definition : Charge/Discharge alternance
Mode                Single sine
E (V)               0.0000
vs.                 Eoc
tE (h:m:s)          0:00:0.0000
record              0
dI                  0.000
unit dI             mA
dt (s)              0.000
fi                  100.000
unit fi             kHz
ff                  100.000
unit ff             Hz
Nd                  10
Points              per decade
spacing             Logarithmic
Va (mV)             5.0
pw                  0.10
Na                  2
corr                0
E range min (V)     -2.500
E range max (V)     2.500
I Range             Auto
Bandwidth           8
nc cycles           0
goto Ns'            0
nr cycles           0
inc. cycle          0

freq/Hz	Re(Z)/Ohm	-Im(Z)/Ohm	|Z|/Ohm	Phase(Z)/deg	time/s	<Ewe>/V	<I>/mA	Cs/µF	Cp/µF	cycle number	I Range	|Ewe|/V	|I|/A	Ns	(Q-Qo)/mA.h	THD Ewe/%	NSD Ewe/%	NSR Ewe/%	|Ewe h2|/V	|Ewe h3|/V	|Ewe h4|/V	|Ewe h5|/V	|Ewe h6|/V	|Ewe h7|/V	THD I/%	NSD I/%	NSR I/%	|I h2|/A	|I h3|/A	|I h4|/A	|I h5|/A	|I h6|/A	|I h7|/A	Re(Y)/Ohm-1	Im(Y)/Ohm-1	|Y|/Ohm-1	Phase(Y)/deg	Re(C)/nF	Im(C)/nF	|C|/nF	Phase(C)/deg	Re(M)	Im(M)	|M|	Phase(M)/deg	Re(Permittivity)	Im(Permittivity)	|Permittivity|	Phase(Permittivity)/deg	Re(Resistivity)/Ohm.cm	Im(Resistivity)/Ohm.cm	|Resistivity|/Ohm.cm	Phase(Resistivity)/deg	Re(Conductivity)/mS/cm	Im(Conductivity)/mS/cm	|Conductivity|/mS/cm	Phase(Conductivity)/deg	Tan(Delta)	Loss Angle(Delta)/deg	dq/mA.h
100004	2.92277	0.160487	2.92717	-3.14291	1165.21	0.441192	-0.16114	9.91663	0.029809	1	37	0.00479107	0.00163676	0	-4.04762e-05	1.31311	0.677911	26.9523	1.27489e-05	2.57329e-05	2.93393e-05	2.39739e-05	2.85095e-05	2.26598e-05	0.476521	0.467419	10.9802	3.59297e-06	4.41631e-06	2.29099e-06	2.08149e-06	2.10378e-06	3.68312e-06	0.341113	0.0187302	0.341627	3.14291	29.8089	542.878	543.695	-86.8571	0.0000000E+000	0.0000000E+000	0.0000000E+000	86.8571	0.0000000E+000	0.0000000E+000	0.0000000E+000	-86.8571	0.0000000E+000	0.0000000E+000	0.0000000E+000	-3.14291	0.0000000E+000	0.0000000E+000	0.0000000E+000	3.14291	18.2119	86.8571	-4.04762e-05
63093.8	2.93185	0.22106	2.94017	-4.31192	1166.84	0.441153	-0.0782263	11.411	0.0645058	1	37	0.00514507	0.00174992	0	-7.07215e-05	1.22703	0.581113	25.4089	3.03339e-05	1.88573e-05	2.8632e-05	1.95923e-05	2.63524e-05	1.92223e-05	0.516604	0.21039	9.94021	2.9585e-06	2.96792e-06	4.00223e-06	4.54084e-06	3.28289e-06	3.06869e-06	0.339154	0.025572	0.340116	4.31192	64.5058	855.519	857.948	-85.6881	0.0000000E+000	0.0000000E+000	0.0000000E+000	85.6881	0.0000000E+000	0.0000000E+000	0.0000000E+000	-85.6881	0.0000000E+000	0.0000000E+000	0.0000000E+000	-4.31192	0.0000000E+000	0.0000000E+000	0.0000000E+000	4.31192	13.2627	85.6881	-1.44689e-05
39814.1	2.95632	0.348851	2.97684	-6.72987	1168.47	0.441161	-0.0659428	11.4589	0.157367	1	37	0.0051632	0.00173446	0	-0.000102252	1.11199	0.689958	24.8834	2.12296e-05	2.53252e-05	3.13691e-05	2.58642e-05	8.42813e-06	1.42183e-05	0.561726	0.325996	10.3079	6.63121e-06	9.01362e-07	4.11122e-06	3.29526e-06	2.90629e-06	1.40075e-06	0.333613	0.0393668	0.335927	6.72987	157.367	1333.6	1342.85	-83.2701	0.0000000E+000	0.0000000E+000	0.0000000E+000	83.2701	0.0000000E+000	0.0000000E+000	0.0000000E+000	-83.2701	0.0000000E+000	0.0000000E+000	0.0000000E+000	-6.72987	0.0000000E+000	0.0000000E+000	0.0000000E+000	6.72987	8.47447	83.2701	-1.20122e-05
25116.9	3.02983	0.519641	3.07407	-9.73199	1170.1	0.441159	-0.0650867	12.1941	0.348441	1	37	0.0052125	0.00169563	0	-0.000127932	1.22495	0.993799	24.2052	1.48523e-05	3.68265e-05	2.47172e-05	1.92739e-05	2.02407e-05	2.58429e-05	0.559146	0.386704	10.479	4.21462e-06	5.47624e-06	3.28261e-06	2.91352e-06	1.02094e-06	2.76585e-06	0.32062	0.0549889	0.325301	9.73199	348.441	2031.63	2061.29	-80.268	0.0000000E+000	0.0000000E+000	0.0000000E+000	80.268	0.0000000E+000	0.0000000E+000	0.0000000E+000	-80.268	0.0000000E+000	0.0000000E+000	0.0000000E+000	-9.73199	0.0000000E+000	0.0000000E+000	0.0000000E+000	9.73199	5.83064	80.268	-1.29123e-05
15847.7	3.07693	0.761667	3.1698	-13.9036	1171.73	0.441155	-0.0655148	13.1853	0.761299	1	37	0.00518421	0.0016355	0	-0.000157466	1.44299	1.11015	25.122	3.99759e-05	1.66493e-05	2.40794e-05	2.45504e-05	1.61306e-05	4.6321e-05	0.615613	0.470278	10.8591	1.68722e-06	3.65766e-06	4.33512e-06	2.40144e-06	6.17126e-06	3.36019e-06	0.306234	0.0758055	0.315477	13.9036	761.299	3075.44	3168.27	-76.0964	0.0000000E+000	0.0000000E+000	0.0000000E+000	76.0964	0.0000000E+000	0.0000000E+000	0.0000000E+000	-76.0964	0.0000000E+000	0.0000000E+000	0.0000000E+000	-13.9036	0.0000000E+000	0.0000000E+000	0.0000000E+000	13.9036	4.03973	76.0964	-1.71479e-05
10002.2	3.13404	1.10195	3.32212	-19.3721	1173.36	0.441165	-0.0625369	14.4398	1.58875	1	37	0.00513851	0.00154675	0	-0.000184805	1.1284	0.903497	25.2511	1.23977e-05	1.9937e-05	1.64092e-05	3.26411e-05	1.43948e-05	3.26686e-05	0.547479	0.268388	11.6092	2.4422e-06	5.55746e-06	2.89042e-06	3.33897e-06	1.35828e-06	1.23639e-06	0.28397	0.0998462	0.301012	19.3721	1588.75	4518.52	4789.69	-70.6279	0.0000000E+000	0.0000000E+000	0.0000000E+000	70.6279	0.0000000E+000	0.0000000E+000	0.0000000E+000	-70.6279	0.0000000E+000	0.0000000E+000	0.0000000E+000	-19.3721	0.0000000E+000	0.0000000E+000	0.0000000E+000	19.3721	2.84408	70.6279	-1.47603e-05
6307.74	3.23749	1.622	3.62108	-26.6111	1174.93	0.44103	-0.0639142	15.5559	3.12119	1	37	0.00542188	0.00149731	0	-0.000211667	1.51068	0.805139	23.8001	1.24948e-05	6.00552e-05	2.25486e-05	1.86027e-05	2.5326e-05	2.85851e-05	0.660024	0.366182	12.1052	1.02703e-06	6.73068e-06	3.90757e-06	1.23487e-06	2.95333e-06	3.71397e-06	0.246906	0.123701	0.276161	26.6111	3121.19	6229.87	6968.01	-63.3889	0.0000000E+000	0.0000000E+000	0.0000000E+000	63.3889	0.0000000E+000	0.0000000E+000	0.0000000E+000	-63.3889	0.0000000E+000	0.0000000E+000	0.0000000E+000	-26.6111	0.0000000E+000	0.0000000E+000	0.0000000E+000	26.6111	1.99599	63.3889	-1.31079e-05
[...]
631.01	4.69671	13.5245	14.3168	-70.8492	1183.07	0.441062	-0.00244502	18.6493	16.6423	1	38	0.00471807	0.000329548	0	-0.000237854	1.84757	0.516631	26.6156	1.5274e-05	5.86997e-05	3.62746e-05	1.66985e-05	2.68286e-05	2.68874e-05	1.04367	0.226154	9.10129	1.95207e-06	2.3639e-06	4.78768e-07	1.30286e-06	5.6484e-07	3.45822e-07	0.0229141	0.0659825	0.069848	70.8492	16642.3	5779.45	17617.3	-19.1508	0.0000000E+000	0.0000000E+000	0.0000000E+000	19.1508	0.0000000E+000	0.0000000E+000	0.0000000E+000	-19.1508	0.0000000E+000	0.0000000E+000	0.0000000E+000	-70.8492	0.0000000E+000	0.0000000E+000	0.0000000E+000	70.8492	0.347275	19.1508	-5.42993e-07
398.089	5.67973	20.689	21.4545	-74.6489	1184.56	0.44108	-0.00195347	19.3241	17.9698	1	38	0.00464074	0.000216306	0	-0.000238577	1.55011	0.491261	26.023	2.1623e-05	2.9162e-05	2.66957e-05	3.05094e-05	8.19103e-06	3.2092e-05	1.21365	0.494036	13.9935	1.91638e-06	6.50765e-07	7.48305e-07	1.16282e-06	6.17386e-07	4.15367e-07	0.0123393	0.0449473	0.0466103	74.6489	17969.8	4933.23	18634.7	-15.3511	0.0000000E+000	0.0000000E+000	0.0000000E+000	15.3511	0.0000000E+000	0.0000000E+000	0.0000000E+000	-15.3511	0.0000000E+000	0.0000000E+000	0.0000000E+000	-74.6489	0.0000000E+000	0.0000000E+000	0.0000000E+000	74.6489	0.274529	15.3511	-3.33513e-07
251.206	7.15603	32.0397	32.8291	-77.4097	1186.29	0.441072	0.00180245	19.7743	18.8348	1	39	0.0047633	0.000145094	0	-0.000238239	1.49244	0.774475	26.6003	2.89584e-05	2.57027e-05	3.41355e-05	2.39557e-05	2.15029e-05	2.68888e-05	0.864345	0.218165	8.86809	8.05553e-07	3.97108e-07	4.58695e-07	5.63802e-07	1.96795e-07	3.10702e-07	0.00663979	0.0297283	0.0304608	77.4097	18834.8	4206.73	19298.8	-12.5903	0.0000000E+000	0.0000000E+000	0.0000000E+000	12.5903	0.0000000E+000	0.0000000E+000	0.0000000E+000	-12.5903	0.0000000E+000	0.0000000E+000	0.0000000E+000	-77.4097	0.0000000E+000	0.0000000E+000	0.0000000E+000	77.4097	0.223349	12.5903	3.78572e-07
158.529	9.3985	49.0177	49.9106	-79.146	1187.79	0.441042	0.00155847	20.4814	19.7551	1	39	0.00465659	9.32987e-05	0	-0.000237605	1.20048	0.579218	27.9127	1.6587e-05	2.43818e-05	1.60898e-05	3.78797e-05	1.11261e-05	1.94289e-05	0.917044	0.442772	13.4761	3.93882e-07	3.01812e-07	2.83159e-07	4.91037e-07	8.97078e-08	1.61546e-07	0.00377288	0.0196774	0.0200358	79.146	19755.1	3787.78	20114.9	-10.854	0.0000000E+000	0.0000000E+000	0.0000000E+000	10.854	0.0000000E+000	0.0000000E+000	0.0000000E+000	-10.854	0.0000000E+000	0.0000000E+000	0.0000000E+000	-79.146	0.0000000E+000	0.0000000E+000	0.0000000E+000	79.146	0.191737	10.854	4.0987e-07
99.9682	15.0077	75.3147	76.7954	-78.7305	1189.26	0.441055	0.00158699	21.1387	20.3314	1	39	0.00463196	6.03156e-05	0	-0.000236928	1.24463	0.720403	27.5025	1.33187e-05	1.11425e-05	3.15093e-05	2.41389e-05	1.83526e-05	3.1348e-05	1.19378	0.567652	21.1126	4.65657e-07	3.11324e-07	1.75312e-07	2.97535e-07	2.12243e-07	1.24967e-07	0.00254474	0.0127705	0.0130216	78.7305	20331.4	4051.37	20731.2	-11.2695	0.0000000E+000	0.0000000E+000	0.0000000E+000	11.2695	0.0000000E+000	0.0000000E+000	0.0000000E+000	-11.2695	0.0000000E+000	0.0000000E+000	0.0000000E+000	-78.7305	0.0000000E+000	0.0000000E+000	0.0000000E+000	78.7305	0.199266	11.2695	3.40729e-07

File: 240322-CVEIS-Activation-5mM_Fe2Fe3-1M_H2SO4-0000RPM-Ag_AgCl_BLF8-GC_RDE_10_PEIS_C15.mpt
EC-Lab ASCII FILE
Nb header lines : 66

Potentio Electrochemical Impedance Spectroscopy

Run on channel : 15 (SN 19485)
User :
Electrode connection : standard
Potential control : Ewe
Ewe ctrl range : min = -2.50 V, max = 2.50 V
Ewe,I filtering : 50 kHz
Safety Limits :
	Do not start on E overload
Channel : Floating
Acquisition started on : 03/22/2024 12:39:19.547
Loaded Setting File :  C:\Data\mathias\GoldElectrode\240322-CVEIS-Activation-5mM_Fe2Fe3-1M_H2SO4-0000RPM-Ag_AgCl_BLF8-Au_RDE.mps
Saved on :
	File : 240322-CVEIS-Activation-5mM_Fe2Fe3-1M_H2SO4-0000RPM-Ag_AgCl_BLF8-GC_RDE_10_PEIS_C15.mpr
	Directory : C:\Data\mathias\GoldElectrode\
	Host : 192.168.0.1
Device : VMP-300 (SN 0826)
Address : USB
EC-Lab for windows v11.52 (software)
Internet server v11.52 (firmware)
Command interpretor v11.52 (firmware)
Electrode material :
Initial state :
Electrolyte :
Comments :
Cable : special
Electrode surface area : 0.001 cm²
Characteristic mass : 0.001 g
Equivalent Weight : 0.000 g/eq.
Density : 0.000 g/cm3
Volume (V) : 0.001 cm³
Record EIS quality indicators
Cycle Definition : Charge/Discharge alternance
Mode                Single sine
E (V)               0.0000
vs.                 Eoc
tE (h:m:s)          0:00:0.0000
record              0
dI                  0.000
unit dI             mA
dt (s)              0.000
fi                  100.000
unit fi             kHz
ff                  100.000
unit ff             Hz
Nd                  10
Points              per decade
spacing             Logarithmic
Va (mV)             5.0
pw                  0.10
Na                  2
corr                0
E range min (V)     -2.500
E range max (V)     2.500
I Range             Auto
Bandwidth           8
nc cycles           0
goto Ns'            0
nr cycles           0
inc. cycle          0

freq/Hz	Re(Z)/Ohm	-Im(Z)/Ohm	|Z|/Ohm	Phase(Z)/deg	time/s	<Ewe>/V	<I>/mA	Cs/µF	Cp/µF	cycle number	I Range	|Ewe|/V	|I|/A	Ns	(Q-Qo)/mA.h	THD Ewe/%	NSD Ewe/%	NSR Ewe/%	|Ewe h2|/V	|Ewe h3|/V	|Ewe h4|/V	|Ewe h5|/V	|Ewe h6|/V	|Ewe h7|/V	THD I/%	NSD I/%	NSR I/%	|I h2|/A	|I h3|/A	|I h4|/A	|I h5|/A	|I h6|/A	|I h7|/A	Re(Y)/Ohm-1	Im(Y)/Ohm-1	|Y|/Ohm-1	Phase(Y)/deg	Re(C)/nF	Im(C)/nF	|C|/nF	Phase(C)/deg	Re(M)	Im(M)	|M|	Phase(M)/deg	Re(Permittivity)	Im(Permittivity)	|Permittivity|	Phase(Permittivity)/deg	Re(Resistivity)/Ohm.cm	Im(Resistivity)/Ohm.cm	|Resistivity|/Ohm.cm	Phase(Resistivity)/deg	Re(Conductivity)/mS/cm	Im(Conductivity)/mS/cm	|Conductivity|/mS/cm	Phase(Conductivity)/deg	Tan(Delta)	Loss Angle(Delta)/deg	dq/mA.h
100004	2.94466	0.144774	2.94822	-2.81467	1552.43	0.441177	-0.176383	10.9929	0.0265079	1	37	0.00481909	0.00163458	0	-4.22502e-05	1.55069	0.716361	27.6949	3.9866e-05	1.73641e-05	3.14638e-05	1.43067e-05	1.80679e-05	3.23415e-05	0.499391	0.403305	10.747	3.01778e-06	2.0817e-06	5.40883e-06	3.0476e-07	3.40676e-06	2.58695e-06	0.338779	0.016656	0.339188	2.81467	26.5079	539.163	539.814	-87.1853	0.0000000E+000	0.0000000E+000	0.0000000E+000	87.1853	0.0000000E+000	0.0000000E+000	0.0000000E+000	-87.1853	0.0000000E+000	0.0000000E+000	0.0000000E+000	-2.81467	0.0000000E+000	0.0000000E+000	0.0000000E+000	2.81467	20.3397	87.1853	-4.22502e-05
63093.8	2.91803	0.209387	2.92553	-4.10429	1554.06	0.441161	-0.0762721	12.0472	0.0617123	1	37	0.00512944	0.00175334	0	-7.8237e-05	1.25934	0.783768	25.4824	2.62908e-05	3.84056e-05	2.44054e-05	1.38213e-05	2.15862e-05	1.90111e-05	0.384041	0.31159	10.1136	2.6385e-06	2.99719e-06	2.54627e-06	1.46315e-06	2.09138e-06	3.49467e-06	0.340941	0.0244646	0.341818	4.10429	61.7123	860.029	862.24	-85.8957	0.0000000E+000	0.0000000E+000	0.0000000E+000	85.8957	0.0000000E+000	0.0000000E+000	0.0000000E+000	-85.8957	0.0000000E+000	0.0000000E+000	0.0000000E+000	-4.10429	0.0000000E+000	0.0000000E+000	0.0000000E+000	4.10429	13.9361	85.8957	-1.90373e-05
39814.1	2.95686	0.319092	2.97402	-6.15929	1555.69	0.441162	-0.0727918	12.5276	0.144215	1	37	0.00518648	0.00174393	0	-0.000110808	0.952575	0.611613	24.7146	1.65757e-05	8.12437e-06	1.31871e-05	1.70179e-05	1.02476e-05	2.89853e-05	0.593567	0.222951	10.2029	3.12654e-06	2.63276e-06	3.72498e-06	3.79781e-06	5.59257e-06	4.8445e-06	0.334304	0.0360767	0.336245	6.15929	144.215	1336.37	1344.12	-83.8407	0.0000000E+000	0.0000000E+000	0.0000000E+000	83.8407	0.0000000E+000	0.0000000E+000	0.0000000E+000	-83.8407	0.0000000E+000	0.0000000E+000	0.0000000E+000	-6.15929	0.0000000E+000	0.0000000E+000	0.0000000E+000	6.15929	9.26648	83.8407	-1.70769e-05
25116.9	2.97865	0.472708	3.01593	-9.01757	1557.32	0.44116	-0.0773143	13.4048	0.329311	1	37	0.00505425	0.00167585	0	-0.00014861	1.20729	1.56856	25.3638	1.9868e-05	1.60593e-05	3.34485e-05	2.61076e-05	1.97315e-05	2.58686e-05	0.652567	0.343403	10.629	6.50492e-06	2.4485e-06	3.53644e-06	5.05322e-06	3.61116e-06	3.43525e-06	0.327475	0.0519699	0.331573	9.01757	329.311	2075.07	2101.04	-80.9824	0.0000000E+000	0.0000000E+000	0.0000000E+000	80.9824	0.0000000E+000	0.0000000E+000	0.0000000E+000	-80.9824	0.0000000E+000	0.0000000E+000	0.0000000E+000	-9.01757	0.0000000E+000	0.0000000E+000	0.0000000E+000	9.01757	6.30124	80.9824	-1.86721e-05
15847.7	3.03404	0.677328	3.10872	-12.5845	1558.95	0.441176	-0.0714145	14.8271	0.703864	1	37	0.00507685	0.0016331	0	-0.000181393	2.19617	0.525718	25.5834	3.77429e-05	3.61169e-05	1.33643e-05	1.25407e-05	2.16945e-05	9.32685e-05	0.638281	0.270308	10.8413	3.83501e-06	1.64905e-06	4.08252e-06	6.20051e-06	3.83443e-06	3.34159e-06	0.313947	0.0700865	0.321675	12.5845	703.864	3152.91	3230.52	-77.4155	0.0000000E+000	0.0000000E+000	0.0000000E+000	77.4155	0.0000000E+000	0.0000000E+000	0.0000000E+000	-77.4155	0.0000000E+000	0.0000000E+000	0.0000000E+000	-12.5845	0.0000000E+000	0.0000000E+000	0.0000000E+000	12.5845	4.47943	77.4155	-1.37422e-05
10002.2	3.10201	0.998942	3.25889	-17.8501	1560.58	0.441139	-0.075509	15.9288	1.49667	1	37	0.00504852	0.00154915	0	-0.000212956	1.32127	0.816907	25.2973	3.51141e-05	3.47814e-05	1.92917e-05	8.43479e-06	2.94752e-05	2.05056e-05	0.628698	0.25152	11.633	5.83555e-06	1.88753e-06	2.77059e-06	3.03421e-06	3.59988e-06	4.67698e-06	0.292082	0.0940592	0.306853	17.8501	1496.67	4647.59	4882.63	-72.1498	0.0000000E+000	0.0000000E+000	0.0000000E+000	72.1498	0.0000000E+000	0.0000000E+000	0.0000000E+000	-72.1498	0.0000000E+000	0.0000000E+000	0.0000000E+000	-17.8501	0.0000000E+000	0.0000000E+000	0.0000000E+000	17.8501	3.10529	72.1498	-1.2754e-05
6307.74	3.19477	1.48902	3.52473	-24.9893	1562.33	0.441037	-0.0667803	16.9452	3.02409	1	37	0.00506158	0.00143602	0	-0.000247132	1.31021	0.813479	25.5151	3.04598e-05	4.51818e-05	1.43402e-05	2.0341e-05	1.22942e-05	1.7077e-05	0.596305	0.485033	12.6552	5.20452e-06	2.66729e-06	1.64141e-06	2.67376e-06	4.68574e-06	1.57509e-06	0.257151	0.119853	0.28371	24.9893	3024.09	6488.35	7158.48	-65.0107	0.0000000E+000	0.0000000E+000	0.0000000E+000	65.0107	0.0000000E+000	0.0000000E+000	0.0000000E+000	-65.0107	0.0000000E+000	0.0000000E+000	0.0000000E+000	-24.9893	0.0000000E+000	0.0000000E+000	0.0000000E+000	24.9893	2.14556	65.0107	-1.89385e-05
[...]
631.01	4.44942	12.2729	13.0545	-70.0724	1570.26	0.441068	-0.00138186	20.5512	18.1638	1	38	0.00487045	0.000373084	0	-0.000272763	1.5102	0.674667	25.0897	1.88199e-05	4.92219e-05	1.44571e-05	2.66128e-05	2.30417e-05	1.81363e-05	0.849157	0.233421	8.07989	2.49443e-06	1.29528e-06	3.60343e-07	1.06221e-06	8.88115e-07	8.24351e-08	0.0261084	0.0720151	0.0766017	70.0724	18163.8	6585.13	19320.7	-19.9276	0.0000000E+000	0.0000000E+000	0.0000000E+000	19.9276	0.0000000E+000	0.0000000E+000	0.0000000E+000	-19.9276	0.0000000E+000	0.0000000E+000	0.0000000E+000	-70.0724	0.0000000E+000	0.0000000E+000	0.0000000E+000	70.0724	0.362541	19.9276	-3.84785e-07
398.089	5.28334	18.9593	19.6817	-74.4286	1571.74	0.441073	-0.00208009	21.0871	19.5676	1	38	0.00481122	0.000244452	0	-0.000273878	1.73724	0.586758	26.5791	3.19395e-05	3.51421e-05	3.39499e-05	3.17906e-05	3.67086e-05	2.80184e-05	0.813403	0.426415	12.1317	1.13309e-06	7.05939e-07	7.66049e-07	1.09123e-06	3.35072e-07	3.69082e-07	0.013639	0.0489438	0.0508086	74.4286	19567.6	5452.84	20313.2	-15.5714	0.0000000E+000	0.0000000E+000	0.0000000E+000	15.5714	0.0000000E+000	0.0000000E+000	0.0000000E+000	-15.5714	0.0000000E+000	0.0000000E+000	0.0000000E+000	-74.4286	0.0000000E+000	0.0000000E+000	0.0000000E+000	74.4286	0.278667	15.5714	-7.92809e-07
251.206	6.6299	29.3401	30.0798	-77.2669	1573.48	0.441076	0.00186302	21.5938	20.5448	1	39	0.00494077	0.000164256	0	-0.00027473	1.18161	0.357106	25.68	1.27965e-05	2.40492e-05	2.32689e-05	1.70329e-05	3.6743e-05	1.81264e-05	0.905307	0.235282	7.78586	1.1194e-06	3.38279e-07	2.24276e-07	7.66812e-07	3.81317e-07	1.03575e-07	0.00732752	0.0324273	0.0332449	77.2669	20544.8	4642.45	21062.8	-12.7331	0.0000000E+000	0.0000000E+000	0.0000000E+000	12.7331	0.0000000E+000	0.0000000E+000	0.0000000E+000	-12.7331	0.0000000E+000	0.0000000E+000	0.0000000E+000	-77.2669	0.0000000E+000	0.0000000E+000	0.0000000E+000	77.2669	0.225968	12.7332	-6.31139e-08
158.529	8.79802	45.0949	45.9451	-78.9603	1574.97	0.441077	0.00141217	22.263	21.4467	1	39	0.00483915	0.000105325	0	-0.000274232	1.24558	0.849569	26.2125	2.09213e-05	1.72003e-05	2.05021e-05	3.17497e-05	1.53211e-05	2.85733e-05	1.01493	0.398064	12.4318	5.20357e-07	3.92914e-07	1.83739e-07	5.80409e-07	3.91054e-07	2.85247e-07	0.00416779	0.0213623	0.0217651	78.9603	21446.7	4184.25	21851	-11.0397	0.0000000E+000	0.0000000E+000	0.0000000E+000	11.0397	0.0000000E+000	0.0000000E+000	0.0000000E+000	-11.0397	0.0000000E+000	0.0000000E+000	0.0000000E+000	-78.9603	0.0000000E+000	0.0000000E+000	0.0000000E+000	78.9603	0.1951	11.0397	1.50956e-07
99.9682	13.7604	68.6757	70.0407	-78.6698	1576.45	0.441064	0.00129251	23.1822	22.2875	1	39	0.00476864	6.80838e-05	0	-0.000273653	1.73833	1.08642	26.4324	1.81538e-05	2.60364e-05	1.65901e-05	2.89161e-05	4.12166e-05	4.82212e-05	1.3226	0.520606	17.6657	6.4684e-07	3.3493e-07	1.70588e-07	1.73536e-07	3.01782e-07	2.88885e-07	0.00280499	0.0139992	0.0142774	78.6698	22287.5	4465.7	22730.4	-11.3302	0.0000000E+000	0.0000000E+000	0.0000000E+000	11.3302	0.0000000E+000	0.0000000E+000	0.0000000E+000	-11.3302	0.0000000E+000	0.0000000E+000	0.0000000E+000	-78.6698	0.0000000E+000	0.0000000E+000	0.0000000E+000	78.6698	0.200368	11.3302	2.10731e-07