Folder: Thesis/Python/Data/GoldElectrode/240322/Carbon (part 2)

File: 240322-CVEIS-Activation-5mM_Fe2Fe3-1M_H2SO4-0000RPM-Ag_AgCl_BLF8-GC_RDE_01_CV_C15.mpt
EC-Lab ASCII FILE
Nb header lines : 60

Cyclic Voltammetry

Run on channel : 15 (SN 19485)
User :
Electrode connection : standard
Potential control : Ewe
Ewe ctrl range : min = -2.50 V, max = 2.50 V
Ewe,I filtering : 50 kHz
Safety Limits :
	Do not start on E overload
Channel : Floating
Acquisition started on : 03/22/2024 12:39:19.547
Loaded Setting File :  C:\Data\mathias\GoldElectrode\240322-CVEIS-Activation-5mM_Fe2Fe3-1M_H2SO4-0000RPM-Ag_AgCl_BLF8-Au_RDE.mps
Saved on :
	File : 240322-CVEIS-Activation-5mM_Fe2Fe3-1M_H2SO4-0000RPM-Ag_AgCl_BLF8-GC_RDE_01_CV_C15.mpr
	Directory : C:\Data\mathias\GoldElectrode\
	Host : 192.168.0.1
Device : VMP-300 (SN 0826)
Address : USB
EC-Lab for windows v11.52 (software)
Internet server v11.52 (firmware)
Command interpretor v11.52 (firmware)
Electrode material :
Initial state :
Electrolyte :
Comments :
Cable : special
Electrode surface area : 0.001 cm²
Characteristic mass : 0.001 g
Equivalent Weight : 0.000 g/eq.
Density : 0.000 g/cm3
Volume (V) : 0.001 cm³
Record EIS quality indicators
Cycle Definition : Charge/Discharge alternance
Ei (V)              0.000
vs.                 Eoc
dE/dt               200.000
dE/dt unit          mV/s
E1 (V)              1.500
vs.                 Ref
Step percent        50
N                   10
E range min (V)     -2.500
E range max (V)     2.500
I Range             Auto
I Range min         Unset
I Range max         Unset
I Range init        Unset
Bandwidth           8
E2 (V)              -0.300
vs.                 Ref
nc cycles           0
Reverse Scan        1
Ef (V)              0.000
vs.                 Eoc

mode	ox/red	error	control changes	counter inc.	time/s	control/V	Ewe/V	<I>/mA	cycle number	(Q-Qo)/C	I Range	step time/s	P/W
2	1	0	0	0	0.000000000000000E+000	0.441742	0.44084	7.71242e-05	1	0.0000000E+000	44	0.000000000000000E+000	3.39994e-08
2	1	0	1	0	0.1752	0.476774	0.476535	0.00541462	1	6.04171e-07	42	0.1563	2.58026e-06
2	1	0	1	0	0.3201	0.505759	0.505463	0.00888622	1	1.62637e-06	42	0.3012	4.49166e-06
2	1	0	1	0	0.495	0.540741	0.540488	0.0156989	1	3.70336e-06	41	0.4761	8.48504e-06
2	1	0	1	0	0.6399	0.569727	0.569461	0.0254282	1	6.63046e-06	41	0.621	1.44804e-05
2	1	0	1	0	0.7848	0.598694	0.598431	0.0405121	1	1.13383e-05	41	0.7659	2.42437e-05
2	1	0	1	0	0.9298	0.627697	0.627416	0.0615336	1	1.86686e-05	41	0.9109	3.86072e-05
2	1	0	1	0	1.0747	0.656682	0.656403	0.0878988	1	2.94393e-05	41	1.0558	5.76971e-05
2	1	0	1	0	1.2501	0.691765	0.691513	0.125495	1	4.79847e-05	40	1.2312	8.67816e-05
2	1	0	1	0	1.395	0.72075	0.720485	0.158808	1	6.85848e-05	40	1.3761	0.000114419
2	1	0	1	0	1.54	0.749735	0.749463	0.188734	1	9.38722e-05	40	1.5211	0.000141449
2	1	0	1	0	1.6849	0.778721	0.778449	0.20791	1	0.000122789	40	1.666	0.000161847
2	1	0	1	0	1.8298	0.807706	0.807457	0.212119	1	0.000153398	40	1.8109	0.000171277
2	1	0	1	0	1.9747	0.836691	0.836442	0.204337	1	0.000183673	40	1.9558	0.000170916
2	1	0	1	0	2.1197	0.865677	0.865408	0.190716	1	0.000212343	40	2.1008	0.000165047
2	1	0	1	0	2.2646	0.894662	0.894399	0.176323	1	0.000238925	40	2.2457	0.000157703
2	1	0	1	0	2.4095	0.923647	0.923372	0.163286	1	0.000263503	40	2.3906	0.000150774
2	1	0	1	0	2.5545	0.952632	0.952356	0.152244	1	0.000286355	40	2.5356	0.00014499
2	1	0	1	0	2.6994	0.981618	0.981344	0.143396	1	0.000307753	40	2.6805	0.000140721
2	1	0	1	0	2.8443	1.0106	1.01033	0.136212	1	0.00032799	40	2.8254	0.00013762
2	1	0	1	0	2.9892	1.03959	1.03933	0.130528	1	0.000347294	40	2.9703	0.000135662
2	1	0	1	0	3.1342	1.06857	1.06831	0.12598	1	0.000365874	40	3.1153	0.000134586
2	1	0	1	0	3.2791	1.09756	1.0973	0.12253	1	0.000383867	40	3.2602	0.000134452
2	1	0	1	0	3.424	1.12654	1.1263	0.120147	1	0.000401436	40	3.4051	0.000135321
2	1	0	1	0	3.5689	1.15553	1.15529	0.118292	1	0.000418707	40	3.55	0.000136663
2	1	0	1	0	3.7139	1.18451	1.18427	0.116818	1	0.000435752	40	3.695	0.000138344
2	1	0	1	0	3.8588	1.2135	1.21325	0.115892	1	0.000452609	40	3.8399	0.000140606
2	1	0	1	0	4.0037	1.24249	1.24223	0.115695	1	0.000469376	40	3.9848	0.000143721
2	1	0	1	0	4.1486	1.27147	1.27122	0.116285	1	0.000486176	40	4.1297	0.000147824
2	1	0	1	0	4.2936	1.30046	1.3002	0.117184	1	0.000503099	40	4.2747	0.000152362
2	1	0	1	0	4.4385	1.32944	1.32919	0.119005	1	0.000520207	40	4.4196	0.00015818
2	1	0	1	0	4.5834	1.35843	1.35818	0.120911	1	0.000537595	40	4.5645	0.000164219
2	1	0	1	0	4.7284	1.38741	1.38715	0.123442	1	0.000555292	40	4.7095	0.000171232
2	1	0	1	0	4.8733	1.4164	1.41614	0.125631	1	0.000573346	40	4.8544	0.00017791
2	1	0	1	0	5.0182	1.44538	1.44514	0.12947	1	0.000591799	40	4.9993	0.000187103
2	1	0	1	0	5.1631	1.47437	1.47412	0.13607	1	0.000611006	40	5.1442	0.000200583
2	1	0	1	0	5.2991	1.49846	1.49813	0.133646	1	0.000629977	40	5.2802	0.000200219
2	1	0	1	0	5.4441	1.46947	1.46917	0.0948446	1	0.000645932	40	5.4252	0.000139343
2	1	0	1	0	5.589	1.44049	1.44018	0.0808863	1	0.000658534	40	5.5701	0.000116491
2	1	0	1	0	5.7339	1.4115	1.41119	0.0735168	1	0.000669669	40	5.715	0.000103746
2	1	0	1	0	5.8788	1.38251	1.3822	0.0690271	1	0.000679975	40	5.8599	9.54091e-05
2	1	0	1	0	6.0238	1.35353	1.35321	0.0659791	1	0.000689752	40	6.0049	8.92837e-05
2	1	0	1	0	6.1687	1.32454	1.32423	0.0636698	1	0.000699136	40	6.1498	8.43132e-05
2	1	0	1	0	6.3136	1.29556	1.29526	0.0617901	1	0.000708221	40	6.2947	8.00341e-05
2	1	0	1	0	6.4585	1.26657	1.26629	0.0602763	1	0.000717063	40	6.4396	7.63272e-05
2	1	0	1	0	6.6035	1.23759	1.23729	0.0589475	1	0.000725703	40	6.5846	7.29349e-05
2	1	0	1	0	6.7484	1.2086	1.20829	0.0577353	1	0.000734154	40	6.7295	6.97609e-05
2	1	0	1	0	6.8933	1.17962	1.1793	0.0566386	1	0.000742441	40	6.8744	6.67939e-05
2	1	0	1	0	7.0382	1.15063	1.15033	0.0556353	1	0.000750577	40	7.0193	6.39991e-05
2	1	0	1	0	7.1832	1.12165	1.12133	0.0546929	1	0.000758579	40	7.1643	6.13285e-05
2	1	0	1	0	7.3281	1.09266	1.09235	0.053805	1	0.00076644	40	7.3092	5.87739e-05
2	1	0	1	0	7.473	1.06368	1.06337	0.0528618	1	0.000774171	40	7.4541	5.62118e-05
2	1	0	1	0	7.618	1.03469	1.03438	0.0519831	1	0.000781775	40	7.5991	5.37703e-05
2	1	0	1	0	7.7629	1.00571	1.00538	0.051025	1	0.000789238	40	7.744	5.12997e-05
2	1	0	1	0	7.9078	0.97672	0.976413	0.0499755	1	0.000796553	40	7.8889	4.87968e-05
2	1	0	1	0	8.0527	0.947735	0.947432	0.0487203	1	0.000803703	40	8.0338	4.61591e-05
2	1	0	1	0	8.1977	0.91875	0.91846	0.0472484	1	0.000810663	40	8.1788	4.33958e-05
2	1	0	1	0	8.3426	0.889764	0.889445	0.0455099	1	0.000817386	40	8.3237	4.04786e-05
2	1	0	1	0	8.5175	0.854782	0.854472	0.0428239	1	0.000825129	41	8.4986	3.65918e-05
2	1	0	1	0	8.6624	0.825797	0.825466	0.040015	1	0.000831137	41	8.6435	3.3031e-05
2	1	0	1	0	8.8074	0.796807	0.796506	0.0365015	1	0.000836694	41	8.7885	2.90736e-05
2	1	0	1	0	8.9523	0.767826	0.767499	0.0322714	1	0.000841685	41	8.9334	2.47683e-05
2	1	0	1	0	9.0972	0.738841	0.738512	0.0274146	1	0.000846012	41	9.0783	2.0246e-05
2	1	0	1	0	9.2421	0.709856	0.709548	0.022231	1	0.000849609	41	9.2232	1.5774e-05
2	1	0	1	0	9.3871	0.68087	0.680566	0.0169132	1	0.000852444	41	9.3682	1.15105e-05
2	1	0	1	0	9.532	0.651885	0.651599	0.0115847	1	0.000854504	41	9.5131	7.54855e-06
2	1	0	1	0	9.6769	0.6229	0.622607	0.00654956	1	0.000855813	41	9.658	4.0778e-06
2	1	0	1	0	9.8518	0.587917	0.587605	0.00115637	1	0.000856492	42	9.8329	6.79489e-07
2	0	0	1	0	9.9967	0.558932	0.558653	-0.00276464	1	0.000856372	42	0.0999	-1.54447e-06
2	0	0	1	0	10.1417	0.529947	0.529683	-0.00559767	1	0.000855759	42	0.2449	-2.96499e-06
[...]
2	0	0	1	0	11.9408	0.170129	0.169826	-0.257497	1	0.000737969	40	2.044	-4.37297e-05
2	0	0	1	0	12.0857	0.141144	0.140824	-0.315416	1	0.000696363	40	2.1889	-4.44182e-05
2	0	0	1	0	12.2306	0.112159	0.111835	-0.361024	1	0.000647141	40	2.3338	-4.0375e-05
2	0	0	1	0	12.3755	0.0831733	0.0828563	-0.386225	1	0.00059273	40	2.4787	-3.20012e-05
2	0	0	1	0	12.5205	0.054188	0.0538681	-0.389137	1	0.000536272	40	2.6237	-2.09621e-05
2	0	0	1	0	12.6654	0.0252027	0.0248845	-0.374711	1	0.000480771	40	2.7686	-9.32449e-06
2	0	0	1	0	12.8103	-0.00378259	-0.0041069	-0.350917	1	0.000428131	40	2.9135	1.44118e-06
2	0	0	1	0	12.9552	-0.0327679	-0.03309	-0.324569	1	0.000379202	40	3.0584	1.074e-05
2	0	0	1	0	13.1002	-0.0617532	-0.0620809	-0.299246	1	0.000334017	40	3.2034	1.85774e-05
2	0	0	1	0	13.2451	-0.0907385	-0.091048	-0.27697	1	0.000292315	40	3.3483	2.52176e-05
2	0	0	1	0	13.39	-0.119724	-0.120069	-0.257841	1	0.000253609	40	3.4932	3.09587e-05
2	0	0	1	0	13.535	-0.148709	-0.149031	-0.241669	1	0.000217431	40	3.6382	3.60161e-05
2	0	0	1	0	13.6799	-0.177694	-0.178023	-0.228038	1	0.000183432	40	3.7831	4.0596e-05
2	0	0	1	0	13.8248	-0.20668	-0.207037	-0.216453	1	0.000151256	40	3.928	4.48137e-05
2	0	0	1	0	13.9697	-0.235665	-0.236006	-0.206647	1	0.000120624	40	4.0729	4.87699e-05
2	0	0	1	0	14.1147	-0.26465	-0.264987	-0.19826	1	9.12834e-05	40	4.2179	5.25363e-05
2	0	0	1	0	14.2596	-0.293636	-0.293967	-0.191068	1	6.30892e-05	40	4.3628	5.61675e-05
2	0	0	1	1	14.3995	-0.278443	-0.278724	-0.170847	1	3.79575e-05	40	4.5027	4.76191e-05
2	0	0	1	1	14.5444	-0.249458	-0.249737	-0.160534	1	1.39947e-05	40	4.6476	4.00912e-05
2	0	0	1	1	14.6893	-0.220473	-0.220756	-0.15258	1	-8.67261e-06	40	4.7925	3.36829e-05
2	0	0	1	1	14.8343	-0.191488	-0.191764	-0.145534	1	-3.02734e-05	40	4.9375	2.79082e-05
2	0	0	1	1	14.9792	-0.162502	-0.162771	-0.139003	1	-5.08837e-05	40	5.0824	2.26255e-05
2	0	0	1	1	15.1241	-0.133517	-0.133772	-0.132752	1	-7.05723e-05	40	5.2273	1.77585e-05
2	0	0	1	1	15.269	-0.104532	-0.104795	-0.126544	1	-8.9359e-05	40	5.3722	1.32612e-05
2	0	0	1	1	15.414	-0.0755462	-0.0758054	-0.120085	1	-0.000107242	40	5.5172	9.10309e-06
2	0	0	1	1	15.5589	-0.0465609	-0.0468249	-0.113164	1	-0.000124145	40	5.6621	5.2989e-06
2	0	0	1	1	15.7038	-0.0175756	-0.0178459	-0.105593	1	-0.000140003	40	5.807	1.88441e-06
2	0	0	1	1	15.8487	0.0114097	0.0111446	-0.0971438	1	-0.000154703	40	5.9519	-1.08263e-06
2	0	0	1	1	15.9937	0.040395	0.0401394	-0.0878218	1	-0.000168125	40	6.0969	-3.52512e-06
2	0	0	1	1	16.1386	0.0693803	0.0691187	-0.0775323	1	-0.000180113	40	6.2418	-5.35893e-06
2	0	0	1	1	16.2835	0.0983656	0.0981037	-0.0664044	1	-0.000190548	40	6.3867	-6.51452e-06
2	0	0	1	1	16.4284	0.127351	0.127095	-0.0548634	1	-0.00019934	40	6.5316	-6.97284e-06
2	0	0	1	1	16.5884	0.159335	0.159155	-0.0413089	1	-0.000207118	40	6.6916	-6.57453e-06
2	0	0	1	1	16.7483	0.191318	0.191063	-0.030444	1	-0.000212952	41	6.8515	-5.81672e-06
2	0	0	1	1	16.8932	0.220304	0.220045	-0.0209358	1	-0.000216657	41	6.9964	-4.60681e-06
2	0	0	1	1	17.0381	0.249289	0.249036	-0.0129538	1	-0.000219093	41	7.1413	-3.22596e-06
2	0	0	1	1	17.1831	0.278274	0.27801	-0.00647116	1	-0.000220481	41	7.2863	-1.79905e-06
2	0	0	1	1	17.358	0.313257	0.313001	-0.000286911	1	-0.000221083	42	7.4612	-8.98034e-08
2	1	0	1	1	17.5029	0.342242	0.341942	0.0031356	1	-0.000220883	42	0.1249	1.07219e-06
2	1	0	1	1	17.6478	0.371227	0.370961	0.00628474	1	-0.000220203	42	0.2698	2.33139e-06
2	1	0	1	1	17.7928	0.400213	0.399912	0.00897028	1	-0.000219103	42	0.4148	3.58732e-06
2	1	0	1	1	17.9677	0.435195	0.434928	0.0125323	1	-0.000217246	41	0.5897	5.45065e-06
2	1	0	0	1	17.9984	0.441342	0.441073	0.0136006	1	-0.00021685	41	0.6204	5.99885e-06

File: 240322-CVEIS-Activation-5mM_Fe2Fe3-1M_H2SO4-0000RPM-Ag_AgCl_BLF8-GC_RDE_02_PEIS_C15.mpt
EC-Lab ASCII FILE
Nb header lines : 66

Potentio Electrochemical Impedance Spectroscopy

Run on channel : 15 (SN 19485)
User :
Electrode connection : standard
Potential control : Ewe
Ewe ctrl range : min = -2.50 V, max = 2.50 V
Ewe,I filtering : 50 kHz
Safety Limits :
	Do not start on E overload
Channel : Floating
Acquisition started on : 03/22/2024 12:39:19.547
Loaded Setting File :  C:\Data\mathias\GoldElectrode\240322-CVEIS-Activation-5mM_Fe2Fe3-1M_H2SO4-0000RPM-Ag_AgCl_BLF8-Au_RDE.mps
Saved on :
	File : 240322-CVEIS-Activation-5mM_Fe2Fe3-1M_H2SO4-0000RPM-Ag_AgCl_BLF8-GC_RDE_02_PEIS_C15.mpr
	Directory : C:\Data\mathias\GoldElectrode\
	Host : 192.168.0.1
Device : VMP-300 (SN 0826)
Address : USB
EC-Lab for windows v11.52 (software)
Internet server v11.52 (firmware)
Command interpretor v11.52 (firmware)
Electrode material :
Initial state :
Electrolyte :
Comments :
Cable : special
Electrode surface area : 0.001 cm²
Characteristic mass : 0.001 g
Equivalent Weight : 0.000 g/eq.
Density : 0.000 g/cm3
Volume (V) : 0.001 cm³
Record EIS quality indicators
Cycle Definition : Charge/Discharge alternance
Mode                Single sine
E (V)               0.0000
vs.                 Eoc
tE (h:m:s)          0:00:0.0000
record              0
dI                  0.000
unit dI             mA
dt (s)              0.000
fi                  100.000
unit fi             kHz
ff                  100.000
unit ff             Hz
Nd                  10
Points              per decade
spacing             Logarithmic
Va (mV)             5.0
pw                  0.10
Na                  2
corr                0
E range min (V)     -2.500
E range max (V)     2.500
I Range             Auto
Bandwidth           8
nc cycles           0
goto Ns'            0
nr cycles           0
inc. cycle          0

freq/Hz	Re(Z)/Ohm	-Im(Z)/Ohm	|Z|/Ohm	Phase(Z)/deg	time/s	<Ewe>/V	<I>/mA	Cs/µF	Cp/µF	cycle number	I Range	|Ewe|/V	|I|/A	Ns	(Q-Qo)/mA.h	THD Ewe/%	NSD Ewe/%	NSR Ewe/%	|Ewe h2|/V	|Ewe h3|/V	|Ewe h4|/V	|Ewe h5|/V	|Ewe h6|/V	|Ewe h7|/V	THD I/%	NSD I/%	NSR I/%	|I h2|/A	|I h3|/A	|I h4|/A	|I h5|/A	|I h6|/A	|I h7|/A	Re(Y)/Ohm-1	Im(Y)/Ohm-1	|Y|/Ohm-1	Phase(Y)/deg	Re(C)/nF	Im(C)/nF	|C|/nF	Phase(C)/deg	Re(M)	Im(M)	|M|	Phase(M)/deg	Re(Permittivity)	Im(Permittivity)	|Permittivity|	Phase(Permittivity)/deg	Re(Resistivity)/Ohm.cm	Im(Resistivity)/Ohm.cm	|Resistivity|/Ohm.cm	Phase(Resistivity)/deg	Re(Conductivity)/mS/cm	Im(Conductivity)/mS/cm	|Conductivity|/mS/cm	Phase(Conductivity)/deg	Tan(Delta)	Loss Angle(Delta)/deg	dq/mA.h
100004	3.00358	0.332756	3.02196	-6.32182	20.7515	0.441182	-0.203853	4.78275	0.0579901	1	37	0.00482106	0.00159535	0	-5.63432e-05	0.712984	0.56346	26.9543	1.82973e-05	8.15076e-06	1.20878e-05	1.27935e-05	1.11598e-05	1.72113e-05	0.5424	0.518726	11.1333	4.99808e-06	2.47224e-06	1.76972e-06	3.71595e-06	2.84806e-06	3.69918e-06	0.328899	0.0364376	0.330912	6.32182	57.9901	523.44	526.643	-83.6782	0.0000000E+000	0.0000000E+000	0.0000000E+000	83.6782	0.0000000E+000	0.0000000E+000	0.0000000E+000	-83.6782	0.0000000E+000	0.0000000E+000	0.0000000E+000	-6.32182	0.0000000E+000	0.0000000E+000	0.0000000E+000	6.32182	9.02636	83.6782	-5.63432e-05
63093.8	3.00902	0.489273	3.04854	-9.23557	22.3825	0.441151	-0.106106	5.15563	0.132801	1	37	0.00513503	0.00168442	0	-0.000105981	1.50135	0.948261	25.2248	1.78628e-05	1.51199e-05	4.08035e-05	5.16143e-05	2.02837e-05	2.07154e-05	0.529374	0.363065	10.4725	6.66003e-07	2.89291e-06	3.15459e-06	5.44e-06	3.095e-06	3.35047e-06	0.323773	0.0526462	0.328026	9.23557	132.801	816.722	827.449	-80.7644	0.0000000E+000	0.0000000E+000	0.0000000E+000	80.7644	0.0000000E+000	0.0000000E+000	0.0000000E+000	-80.7644	0.0000000E+000	0.0000000E+000	0.0000000E+000	-9.23557	0.0000000E+000	0.0000000E+000	0.0000000E+000	9.23557	6.14999	80.7644	-2.39336e-05
39814.1	3.07396	0.692717	3.15104	-12.6995	24.0125	0.441175	-0.102086	5.77069	0.278889	1	37	0.00518196	0.00164452	0	-0.000154367	0.885237	0.379107	24.8648	8.70962e-06	1.61345e-05	1.5358e-05	1.72975e-05	2.00105e-05	2.09966e-05	0.421921	0.463752	10.7498	3.45381e-06	6.15735e-07	2.61537e-06	2.45177e-06	3.17934e-06	2.90832e-06	0.309592	0.0697666	0.317355	12.6995	278.889	1237.58	1268.61	-77.3005	0.0000000E+000	0.0000000E+000	0.0000000E+000	77.3005	0.0000000E+000	0.0000000E+000	0.0000000E+000	-77.3005	0.0000000E+000	0.0000000E+000	0.0000000E+000	-12.6995	0.0000000E+000	0.0000000E+000	0.0000000E+000	12.6995	4.43753	77.3005	-2.40885e-05
25116.9	3.15351	0.981235	3.30264	-17.2839	25.6425	0.441159	-0.097917	6.45775	0.570038	1	37	0.00522135	0.00158096	0	-0.000202851	1.07142	1.18571	24.6726	3.01429e-05	3.28182e-05	1.00732e-05	9.66065e-06	1.59997e-05	1.90677e-05	0.704721	0.191687	11.2859	2.67248e-06	3.13058e-06	5.20804e-06	4.265e-06	5.45407e-06	3.86994e-06	0.289115	0.08996	0.302788	17.2839	570.038	1832	1918.63	-72.7161	0.0000000E+000	0.0000000E+000	0.0000000E+000	72.7161	0.0000000E+000	0.0000000E+000	0.0000000E+000	-72.7161	0.0000000E+000	0.0000000E+000	0.0000000E+000	-17.2839	0.0000000E+000	0.0000000E+000	0.0000000E+000	17.2839	3.21382	72.7161	-2.49854e-05
15847.7	3.25435	1.45182	3.56351	-24.0424	27.2725	0.441195	-0.0980659	6.91739	1.14818	1	37	0.00506781	0.00142214	0	-0.000249907	1.1759	0.491581	25.6353	3.17125e-05	1.15651e-05	3.60114e-05	1.48781e-05	2.41335e-05	8.60089e-06	0.788983	0.446637	12.6187	5.21307e-06	6.43349e-06	3.49412e-06	3.19364e-06	4.45568e-06	2.52149e-06	0.256277	0.114329	0.280623	24.0424	1148.18	2573.73	2818.23	-65.9576	0.0000000E+000	0.0000000E+000	0.0000000E+000	65.9576	0.0000000E+000	0.0000000E+000	0.0000000E+000	-65.9576	0.0000000E+000	0.0000000E+000	0.0000000E+000	-24.0424	0.0000000E+000	0.0000000E+000	0.0000000E+000	24.0424	2.24157	65.9576	-2.49131e-05
10002.2	3.41752	2.14541	4.03512	-32.1192	28.9035	0.441194	-0.0938225	7.41676	2.09662	1	37	0.00510988	0.00126635	0	-0.000293785	1.07981	0.436409	25.0999	2.37731e-05	2.43655e-05	2.20896e-05	2.96914e-05	9.97746e-06	1.65519e-05	0.937548	0.31813	14.4015	5.63524e-06	3.05878e-06	7.37438e-06	4.16759e-06	1.13004e-06	3.76081e-06	0.209893	0.131764	0.247824	32.1192	2096.62	3339.81	3943.36	-57.8808	0.0000000E+000	0.0000000E+000	0.0000000E+000	57.8808	0.0000000E+000	0.0000000E+000	0.0000000E+000	-57.8808	0.0000000E+000	0.0000000E+000	0.0000000E+000	-32.1192	0.0000000E+000	0.0000000E+000	0.0000000E+000	32.1192	1.59295	57.8808	-2.20267e-05
6307.74	3.60858	3.22756	4.84138	-41.8099	30.9916	0.441036	-0.00844043	7.81759	3.47442	1	38	0.00508909	0.00105116	0	-0.000306783	1.51002	0.422874	24.8444	2.53544e-05	3.99842e-05	2.02246e-05	2.02727e-05	1.85186e-05	4.16417e-05	0.155789	0.118935	2.84572	5.45671e-07	6.5639e-07	3.75445e-07	8.44934e-07	5.57093e-07	5.9074e-07	0.153956	0.137701	0.206553	41.8099	3474.42	3884.58	5211.68	-48.1901	0.0000000E+000	0.0000000E+000	0.0000000E+000	48.1901	0.0000000E+000	0.0000000E+000	0.0000000E+000	-48.1901	0.0000000E+000	0.0000000E+000	0.0000000E+000	-41.8099	0.0000000E+000	0.0000000E+000	0.0000000E+000	41.8099	1.11805	48.1901	-1.52912e-06
[...]
631.01	7.05823	25.6223	26.5767	-74.5986	38.8774	0.44108	-0.00568107	9.84387	9.14956	1	38	0.00481549	0.000181192	0	-0.000321275	2.15786	0.563587	25.9329	3.08744e-05	2.87476e-05	2.20231e-05	7.64922e-05	3.01826e-05	2.19183e-05	1.30191	0.427647	16.4205	1.1411e-06	1.00956e-06	2.78285e-07	1.29431e-06	6.55299e-07	6.07216e-07	0.00999294	0.0362757	0.0376269	74.5986	9149.55	2520.45	9490.36	-15.4014	0.0000000E+000	0.0000000E+000	0.0000000E+000	15.4014	0.0000000E+000	0.0000000E+000	0.0000000E+000	-15.4014	0.0000000E+000	0.0000000E+000	0.0000000E+000	-74.5986	0.0000000E+000	0.0000000E+000	0.0000000E+000	74.5986	0.275472	15.4014	-9.3263e-07
398.089	9.24231	38.9845	40.0651	-76.6627	40.6177	0.441066	-0.000224242	10.2553	9.70957	1	39	0.00496431	0.000123906	0	-0.000321589	1.31908	0.489596	25.9256	1.84111e-05	2.85136e-05	1.7755e-05	3.65826e-05	1.68347e-05	3.13569e-05	0.800088	0.228932	10.0965	3.32325e-07	3.86597e-07	2.13467e-07	7.22678e-07	2.1105e-07	2.32569e-07	0.0057577	0.0242862	0.0249594	76.6627	9709.57	2301.91	9978.71	-13.3373	0.0000000E+000	0.0000000E+000	0.0000000E+000	13.3373	0.0000000E+000	0.0000000E+000	0.0000000E+000	-13.3373	0.0000000E+000	0.0000000E+000	0.0000000E+000	-76.6627	0.0000000E+000	0.0000000E+000	0.0000000E+000	76.6627	0.237077	13.3373	-8.06223e-08
251.206	12.6523	59.449	60.7805	-77.9852	42.1028	0.441079	-0.000216415	10.6573	10.1955	1	39	0.00485627	7.98985e-05	0	-0.000321705	1.39208	0.664012	25.2838	2.00035e-05	1.55406e-05	2.13127e-05	2.07596e-05	3.72546e-05	3.17166e-05	1.03079	0.345576	15.4121	3.53734e-07	4.90279e-07	2.63552e-07	3.46453e-07	2.29907e-07	2.20586e-07	0.00342486	0.0160922	0.0164527	77.9852	10195.5	2169.87	10423.8	-12.0148	0.0000000E+000	0.0000000E+000	0.0000000E+000	12.0148	0.0000000E+000	0.0000000E+000	0.0000000E+000	-12.0148	0.0000000E+000	0.0000000E+000	0.0000000E+000	-77.9852	0.0000000E+000	0.0000000E+000	0.0000000E+000	77.9852	0.212827	12.0148	-2.13252e-08
158.529	17.4362	89.4408	91.1245	-78.9687	43.5956	0.441081	-0.000192746	11.2247	10.8138	1	39	0.00477996	5.24553e-05	0	-0.000321799	1.12288	0.584948	26.2016	1.81089e-05	2.19933e-05	1.78402e-05	9.95698e-06	1.86681e-05	2.7251e-05	1.37958	0.658672	23.6499	2.76916e-07	2.40565e-07	2.3466e-07	2.66461e-07	3.49392e-07	2.25079e-07	0.00209981	0.0107712	0.010974	78.9687	10813.8	2108.11	11017.3	-11.0313	0.0000000E+000	0.0000000E+000	0.0000000E+000	11.0313	0.0000000E+000	0.0000000E+000	0.0000000E+000	-11.0313	0.0000000E+000	0.0000000E+000	0.0000000E+000	-78.9687	0.0000000E+000	0.0000000E+000	0.0000000E+000	78.9687	0.194947	11.0312	8.44091e-09
99.9682	26.1259	137.173	139.639	-79.2167	45.0678	0.441016	0.000191568	11.6062	11.1999	1	39	0.00480444	3.44061e-05	0	-0.000321723	1.86478	2.11008	25.3674	2.40858e-05	1.85687e-05	3.60453e-05	2.96446e-05	2.11574e-05	6.46374e-05	1.58704	1.62368	36.0686	2.48774e-07	1.05192e-07	1.26326e-07	3.15794e-07	1.66098e-07	2.5831e-07	0.00133985	0.00703485	0.00716131	79.2167	11199.9	2133.11	11401.2	-10.7833	0.0000000E+000	0.0000000E+000	0.0000000E+000	10.7833	0.0000000E+000	0.0000000E+000	0.0000000E+000	-10.7833	0.0000000E+000	0.0000000E+000	0.0000000E+000	-79.2167	0.0000000E+000	0.0000000E+000	0.0000000E+000	79.2167	0.190459	10.7833	6.55679e-08