Folder: Thesis/Python/Data/GoldElectrode/240322/Carbon (part 5)

File: 240322-CVEIS-PostActivation-5mM_Fe2Fe3-1M_H2SO4-0000RPM-Ag_AgCl_BLF8-GC_RDE_01_CV_C15.mpt
EC-Lab ASCII FILE
Nb header lines : 60

Cyclic Voltammetry

Run on channel : 15 (SN 19485)
User :
Electrode connection : standard
Potential control : Ewe
Ewe ctrl range : min = -1.00 V, max = 1.00 V
Ewe,I filtering : <None>
Safety Limits :
	Do not start on E overload
Channel : Floating
Acquisition started on : 03/22/2024 13:54:23.830
Loaded Setting File :  C:\Data\mathias\GoldElectrode\240322-CVEIS-PostActivation-5mM_Fe2Fe3-1M_H2SO4-0000RPM-Ag_AgCl_BLF8-Au_RDE.mps
Saved on :
	File : 240322-CVEIS-PostActivation-5mM_Fe2Fe3-1M_H2SO4-0000RPM-Ag_AgCl_BLF8-GC_RDE_01_CV_C15.mpr
	Directory : C:\Data\mathias\GoldElectrode\
	Host : 192.168.0.1
Device : VMP-300 (SN 0826)
Address : USB
EC-Lab for windows v11.52 (software)
Internet server v11.52 (firmware)
Command interpretor v11.52 (firmware)
Electrode material :
Initial state :
Electrolyte :
Comments :
Cable : special
Electrode surface area : 0.001 cm²
Characteristic mass : 0.001 g
Equivalent Weight : 0.000 g/eq.
Density : 0.000 g/cm3
Volume (V) : 0.001 cm³
Record EIS quality indicators
Cycle Definition : Charge/Discharge alternance
Ei (V)              0.000
vs.                 Eoc
dE/dt               20.000
dE/dt unit          mV/s
E1 (V)              0.700
vs.                 Ref
Step percent        50
N                   10
E range min (V)     -1.000
E range max (V)     1.000
I Range             Auto
I Range min         Unset
I Range max         Unset
I Range init        Unset
Bandwidth           8
E2 (V)              0.000
vs.                 Ref
nc cycles           1
Reverse Scan        1
Ef (V)              0.000
vs.                 Eoc

mode	ox/red	error	control changes	counter inc.	time/s	control/V	Ewe/V	<I>/mA	cycle number	(Q-Qo)/C	I Range	step time/s	P/W
2	1	0	1	0	0.000000000000000E+000	0.441158	0.44072	0.00097987	1	0.0000000E+000	43	0.000000000000000E+000	4.31849e-07
2	1	0	1	0	1.2232	0.465621	0.465216	0.0168193	1	1.07784e-05	41	1.2094	7.82461e-06
2	1	0	1	0	2.3977	0.48911	0.489039	0.0323845	1	3.9646e-05	41	2.3839	1.58373e-05
2	1	0	1	0	3.5721	0.512598	0.512467	0.0481681	1	8.70406e-05	41	3.5583	2.46846e-05
2	1	0	1	0	4.7466	0.536088	0.535673	0.0622285	1	0.000152193	41	4.7328	3.33341e-05
2	1	0	1	0	5.921	0.559576	0.559196	0.0720868	1	0.000231622	41	5.9072	4.03107e-05
2	1	0	1	0	7.0954	0.583065	0.58269	0.0761979	1	0.000319305	41	7.0816	4.43997e-05
2	1	0	1	0	8.2699	0.606553	0.605961	0.075116	1	0.000408608	41	8.2561	4.55174e-05
2	1	0	1	0	9.4443	0.630042	0.629694	0.0709115	1	0.000494571	41	9.4305	4.46525e-05
2	1	0	1	0	10.6187	0.653531	0.65303	0.0657126	1	0.000574852	41	10.6049	4.29123e-05
2	1	0	1	0	11.7932	0.67702	0.676946	0.0608113	1	0.000649128	41	11.7794	4.1166e-05
2	1	0	0	0	12.9418	0.699984	0.699039	0.0567169	1	0.000716556	41	12.928	3.96474e-05
2	1	0	1	0	14.1049	0.67672	0.676472	0.0477153	1	0.000775972	41	14.0911	3.22781e-05
2	1	0	1	0	15.2794	0.653231	0.652795	0.0426575	1	0.00082893	41	15.2656	2.78466e-05
2	1	0	1	0	16.4538	0.629742	0.629351	0.0381335	1	0.000876323	41	16.44	2.39994e-05
2	1	0	1	0	17.6282	0.606253	0.605894	0.0335411	1	0.000918383	41	17.6144	2.03224e-05
2	1	0	1	0	18.8027	0.582765	0.582428	0.0286261	1	0.000954887	41	18.7889	1.66727e-05
2	1	0	1	0	19.9771	0.559276	0.559218	0.0232675	1	0.000985374	41	19.9633	1.30116e-05
2	1	0	1	0	21.1515	0.535787	0.535314	0.01736	1	0.00100926	41	21.1377	9.29307e-06
2	1	0	1	0	22.326	0.512298	0.512112	0.0107672	1	0.00102582	41	22.3122	5.51402e-06
2	1	0	1	0	23.5304	0.48821	0.488018	0.0030259	1	0.00103422	42	23.5166	1.47669e-06
2	0	0	1	0	24.7048	0.464721	0.464632	-0.00578623	1	0.00103274	42	0.7246	-2.68847e-06
2	0	0	1	0	25.9093	0.440633	0.44034	-0.0167247	1	0.00101938	41	1.9291	-7.36454e-06
2	0	0	1	0	27.0837	0.417144	0.416689	-0.0298872	1	0.000992239	41	3.1035	-1.24537e-05
2	0	0	1	0	28.2581	0.393655	0.393559	-0.0459471	1	0.000947949	41	4.2779	-1.80829e-05
2	0	0	1	0	29.4326	0.370167	0.370014	-0.0645905	1	0.000883211	41	5.4524	-2.38994e-05
2	0	0	1	0	30.607	0.346678	0.346358	-0.0843099	1	0.000795738	41	6.6268	-2.92014e-05
2	0	0	1	0	31.7814	0.323191	0.323014	-0.102263	1	0.000685813	41	7.8012	-3.30323e-05
2	0	0	1	0	32.9859	0.299101	0.298648	-0.114204	1	0.000554141	40	9.0057	-3.41066e-05
2	0	0	1	0	34.1603	0.275612	0.275421	-0.119037	1	0.000415266	40	10.1801	-3.27853e-05
2	0	0	1	0	35.3348	0.252122	0.251753	-0.116916	1	0.00027498	40	11.3546	-2.94339e-05
2	0	0	1	0	36.5092	0.228634	0.228365	-0.109848	1	0.000140255	40	12.529	-2.50854e-05
2	0	0	1	0	37.6836	0.205146	0.204847	-0.101451	1	1.46348e-05	40	13.7034	-2.0782e-05
2	0	0	1	0	38.8581	0.181657	0.181473	-0.0930127	1	-0.000101116	40	14.8779	-1.68793e-05
2	0	0	1	0	40.0325	0.158168	0.15811	-0.0857109	1	-0.000207695	40	16.0523	-1.35517e-05
2	0	0	1	0	41.2069	0.134679	0.134391	-0.0795731	1	-0.000306352	40	17.2267	-1.06939e-05
2	0	0	1	0	42.3814	0.111191	0.110971	-0.0741319	1	-0.00039834	40	18.4012	-8.22653e-06
2	0	0	1	0	43.5558	0.0877019	0.0874011	-0.069519	1	-0.000484723	40	19.5756	-6.07604e-06
2	0	0	1	0	44.7302	0.0642145	0.0640156	-0.0659071	1	-0.000566437	40	20.75	-4.21909e-06
2	0	0	1	0	45.9047	0.0407244	0.0404443	-0.0628448	1	-0.000644235	40	21.9245	-2.54171e-06
2	0	0	1	0	47.0791	0.0172357	0.017101	-0.0602225	1	-0.000718748	40	23.0989	-1.02987e-06
2	0	0	1	1	48.229	0.00579295	0.00528033	-0.0602137	1	-0.000788572	40	24.2488	-3.17948e-07
2	0	0	1	1	49.4034	0.0292799	0.0290004	-0.0576267	1	-0.000855236	40	25.4232	-1.6712e-06
2	0	0	1	1	50.5778	0.0527687	0.0525954	-0.0553285	1	-0.000919079	40	26.5976	-2.91002e-06
2	0	0	1	1	51.7523	0.0762574	0.0758622	-0.0534849	1	-0.000980558	40	27.7721	-4.05748e-06
2	0	0	1	1	52.9267	0.0997461	0.0995899	-0.0516504	1	-0.00103986	40	28.9465	-5.14386e-06
2	0	0	1	1	54.1011	0.123235	0.122764	-0.0495878	1	-0.00109706	40	30.1209	-6.08759e-06
2	0	0	1	1	55.2756	0.146724	0.146342	-0.047582	1	-0.00115214	40	31.2954	-6.96324e-06
2	0	0	1	1	56.48	0.170812	0.170786	-0.0439363	1	-0.00120629	41	32.4998	-7.5037e-06
2	0	0	1	1	57.6544	0.194301	0.193965	-0.0416732	1	-0.00125659	41	33.6742	-8.08313e-06
2	0	0	1	1	58.8289	0.21779	0.217468	-0.0390794	1	-0.00130404	41	34.8487	-8.49851e-06
2	0	0	1	1	60.0033	0.241278	0.240757	-0.0359754	1	-0.00134814	41	36.0231	-8.66131e-06
2	0	0	1	1	61.1778	0.264769	0.264476	-0.0323056	1	-0.00138829	41	37.1976	-8.54403e-06
2	0	0	1	1	62.3522	0.288256	0.287968	-0.0280305	1	-0.00142376	41	38.372	-8.07188e-06
2	0	0	1	1	63.5266	0.311745	0.311482	-0.0230826	1	-0.00145381	41	39.5464	-7.1898e-06
2	0	0	1	1	64.7011	0.335233	0.335042	-0.0175152	1	-0.00147769	41	40.7209	-5.86832e-06
2	0	0	1	1	65.8755	0.358722	0.358618	-0.0111803	1	-0.0014946	41	41.8953	-4.00947e-06
2	0	0	1	1	67.0799	0.382811	0.382455	-0.0038436	1	-0.00150366	42	43.0997	-1.47001e-06
2	1	0	1	1	68.2544	0.406299	0.405945	0.00525313	1	-0.00150291	42	0.6248	2.13248e-06
2	1	0	1	1	69.4588	0.430388	0.429949	0.01678	1	-0.00148992	41	1.8292	7.21454e-06
2	1	0	1	1	70.6057	0.453327	0.453108	0.0307499	2	-0.00146294	41	2.9761	1.3933e-05
2	1	0	1	1	71.7802	0.476815	0.476613	0.0483062	2	-0.00141678	41	4.1506	2.30234e-05
2	1	0	1	1	72.9546	0.500304	0.500103	0.0681716	2	-0.00134847	41	5.325	3.40928e-05
2	1	0	1	1	74.129	0.523793	0.523632	0.0874668	2	-0.00125682	41	6.4994	4.58004e-05
2	1	0	1	1	75.3035	0.547282	0.546993	0.102265	2	-0.00114473	41	7.6739	5.59384e-05
2	1	0	1	1	76.4779	0.57077	0.570533	0.109358	2	-0.00101961	41	8.8483	6.23922e-05
[...]
2	1	0	1	1	90.604	0.546682	0.546252	0.02292	2	-7.90072e-05	41	22.9744	1.25201e-05
2	1	0	1	1	91.7784	0.523193	0.522924	0.0159494	2	-5.61509e-05	41	24.1488	8.34032e-06
2	1	0	1	1	92.9529	0.499705	0.499378	0.00833434	2	-4.18436e-05	41	25.3233	4.16198e-06
2	0	0	1	1	94.1573	0.475616	0.475296	-0.000455576	2	-3.69971e-05	42	0.025	-2.16533e-07
2	0	0	1	1	95.3317	0.452127	0.452078	-0.010469	2	-4.32527e-05	42	1.1994	-4.73281e-06
2	0	0	1	1	96.5362	0.428039	0.427902	-0.0228036	2	-6.30618e-05	41	2.4039	-9.75772e-06
2	0	0	1	1	97.7106	0.40455	0.4045	-0.0374662	2	-9.82125e-05	41	3.5783	-1.51551e-05
2	0	0	1	1	98.885	0.381061	0.380379	-0.0547583	2	-0.000152157	41	4.7527	-2.08289e-05
2	0	0	1	1	100.059	0.357573	0.357113	-0.073878	2	-0.000227645	41	5.9272	-2.63828e-05
2	0	0	1	1	101.234	0.334084	0.333743	-0.0926229	2	-0.000325646	41	7.1016	-3.09122e-05
2	0	0	1	1	102.408	0.310594	0.310369	-0.107763	2	-0.000443877	41	8.2761	-3.34464e-05
2	0	0	1	1	103.613	0.286507	0.286334	-0.115463	2	-0.000579681	40	9.4805	-3.30611e-05
2	0	0	1	1	104.787	0.263018	0.262529	-0.116191	2	-0.00071761	40	10.6549	-3.05035e-05
2	0	0	1	1	105.962	0.23953	0.239379	-0.111404	2	-0.000853039	40	11.8293	-2.66677e-05
2	0	0	1	1	107.136	0.21604	0.2156	-0.103607	2	-0.000980954	40	13.0038	-2.23377e-05
2	0	0	1	1	108.31	0.192552	0.192353	-0.0954642	2	-0.00109945	40	14.1782	-1.83628e-05
2	0	0	1	1	109.485	0.169063	0.168856	-0.0878128	2	-0.00120869	40	15.3527	-1.48278e-05
2	0	0	1	1	110.659	0.145574	0.145262	-0.0812999	2	-0.0013097	40	16.5271	-1.18098e-05
2	0	0	1	1	111.834	0.122085	0.122011	-0.0756589	2	-0.00140365	40	17.7015	-9.23124e-06
2	0	0	1	1	113.008	0.0985967	0.0983775	-0.0709875	2	-0.00149169	40	18.876	-6.98357e-06
2	0	0	1	1	114.183	0.075108	0.0748582	-0.0668131	2	-0.00157478	40	20.0504	-5.00151e-06
2	0	0	1	1	115.357	0.0516183	0.0514628	-0.063526	2	-0.00165371	40	21.2249	-3.26922e-06
2	0	0	1	1	116.532	0.0281305	0.0278193	-0.060831	2	-0.00172914	40	22.3993	-1.69227e-06
2	0	0	1	1	117.706	0.00464172	0.00438267	-0.0585459	2	-0.0018016	40	23.5737	-2.56587e-07
2	0	0	1	0	118.851	0.0182847	0.0181363	-0.0584598	2	-0.00186809	40	24.7185	-1.06024e-06
2	0	0	1	0	120.025	0.0417739	0.0415298	-0.0560193	2	-0.00193278	40	25.893	-2.32647e-06
2	0	0	1	0	121.2	0.0652627	0.0648886	-0.0539071	2	-0.00199498	40	27.0674	-3.49796e-06
2	0	0	1	0	122.374	0.0887514	0.0885638	-0.0520057	2	-0.00205492	40	28.2419	-4.60582e-06
2	0	0	1	0	123.549	0.11224	0.111995	-0.0501592	2	-0.00211275	40	29.4163	-5.61758e-06
2	0	0	1	0	124.723	0.135729	0.13559	-0.0483176	2	-0.00216847	40	30.5907	-6.55137e-06
2	0	0	1	0	125.927	0.159817	0.159662	-0.0445836	2	-0.00222337	41	31.7952	-7.11831e-06
2	0	0	1	0	127.102	0.183306	0.183154	-0.0424875	2	-0.00227452	41	32.9696	-7.78175e-06
2	0	0	1	0	128.276	0.206795	0.206783	-0.0400838	2	-0.00232302	41	34.144	-8.28864e-06
2	0	0	1	0	129.451	0.230284	0.230112	-0.0372679	2	-0.00236844	41	35.3185	-8.57581e-06
2	0	0	1	0	130.625	0.253772	0.253448	-0.0338705	2	-0.00241022	41	36.4929	-8.58441e-06
2	0	0	1	0	131.8	0.277261	0.276963	-0.0298669	2	-0.00244769	41	37.6673	-8.27202e-06
2	0	0	1	0	132.974	0.30075	0.300502	-0.0252859	2	-0.00248012	41	38.8418	-7.59847e-06
2	0	0	1	0	134.148	0.324239	0.32402	-0.0200606	2	-0.00250677	41	40.0162	-6.50004e-06
2	0	0	1	0	135.323	0.347727	0.347284	-0.0141208	2	-0.00252687	41	41.1907	-4.90392e-06
2	0	0	1	0	136.497	0.371216	0.370968	-0.00732589	2	-0.00253955	41	42.3651	-2.71767e-06
2	1	0	1	0	137.702	0.395305	0.395191	0.000946766	2	-0.00254356	42	0.0999	3.74153e-07
2	1	0	1	0	138.891	0.419093	0.418731	0.0104449	2	-0.00253661	42	1.2893	4.37362e-06
2	1	0	1	0	139.936	0.440008	0.439739	0.0224645	2	-0.00251932	41	2.3337	9.87853e-06

File: 240322-CVEIS-PostActivation-5mM_Fe2Fe3-1M_H2SO4-0000RPM-Ag_AgCl_BLF8-GC_RDE_02_PEIS_C15.mpt
EC-Lab ASCII FILE
Nb header lines : 66

Potentio Electrochemical Impedance Spectroscopy

Run on channel : 15 (SN 19485)
User :
Electrode connection : standard
Potential control : Ewe
Ewe ctrl range : min = -1.00 V, max = 1.00 V
Ewe,I filtering : <None>
Safety Limits :
	Do not start on E overload
Channel : Floating
Acquisition started on : 03/22/2024 13:54:23.830
Loaded Setting File :  C:\Data\mathias\GoldElectrode\240322-CVEIS-PostActivation-5mM_Fe2Fe3-1M_H2SO4-0000RPM-Ag_AgCl_BLF8-Au_RDE.mps
Saved on :
	File : 240322-CVEIS-PostActivation-5mM_Fe2Fe3-1M_H2SO4-0000RPM-Ag_AgCl_BLF8-GC_RDE_02_PEIS_C15.mpr
	Directory : C:\Data\mathias\GoldElectrode\
	Host : 192.168.0.1
Device : VMP-300 (SN 0826)
Address : USB
EC-Lab for windows v11.52 (software)
Internet server v11.52 (firmware)
Command interpretor v11.52 (firmware)
Electrode material :
Initial state :
Electrolyte :
Comments :
Cable : special
Electrode surface area : 0.001 cm²
Characteristic mass : 0.001 g
Equivalent Weight : 0.000 g/eq.
Density : 0.000 g/cm3
Volume (V) : 0.001 cm³
Record EIS quality indicators
Cycle Definition : Charge/Discharge alternance
Mode                Single sine
E (V)               0.0000
vs.                 Eoc
tE (h:m:s)          0:00:0.0000
record              0
dI                  0.000
unit dI             mA
dt (s)              0.000
fi                  400.000
unit fi             kHz
ff                  100.000
unit ff             mHz
Nd                  10
Points              per decade
spacing             Logarithmic
Va (mV)             5.0
pw                  0.10
Na                  3
corr                0
E range min (V)     -1.000
E range max (V)     1.000
I Range             Auto
Bandwidth           8
nc cycles           2
goto Ns'            0
nr cycles           0
inc. cycle          1

freq/Hz	Re(Z)/Ohm	-Im(Z)/Ohm	|Z|/Ohm	Phase(Z)/deg	time/s	<Ewe>/V	<I>/mA	Cs/µF	Cp/µF	cycle number	I Range	|Ewe|/V	|I|/A	Ns	(Q-Qo)/mA.h	THD Ewe/%	NSD Ewe/%	NSR Ewe/%	|Ewe h2|/V	|Ewe h3|/V	|Ewe h4|/V	|Ewe h5|/V	|Ewe h6|/V	|Ewe h7|/V	THD I/%	NSD I/%	NSR I/%	|I h2|/A	|I h3|/A	|I h4|/A	|I h5|/A	|I h6|/A	|I h7|/A	Re(Y)/Ohm-1	Im(Y)/Ohm-1	|Y|/Ohm-1	Phase(Y)/deg	Re(C)/nF	Im(C)/nF	|C|/nF	Phase(C)/deg	Re(M)	Im(M)	|M|	Phase(M)/deg	Re(Permittivity)	Im(Permittivity)	|Permittivity|	Phase(Permittivity)/deg	Re(Resistivity)/Ohm.cm	Im(Resistivity)/Ohm.cm	|Resistivity|/Ohm.cm	Phase(Resistivity)/deg	Re(Conductivity)/mS/cm	Im(Conductivity)/mS/cm	|Conductivity|/mS/cm	Phase(Conductivity)/deg	Tan(Delta)	Loss Angle(Delta)/deg	dq/mA.h
399996	3.14435	1.15749	3.35063	-20.2095	142.695	0.439876	-0.00196094	0.343754	0.041023	1	38	0.00499225	0.00148994	0	7.95138e-06	-1	-1	-1	0	0	0	0	0	0	-1	-1	-1	0	0	0	0	0	0	0.280077	0.103101	0.298451	20.2095	41.023	111.44	118.751	-69.7905	0.0000000E+000	0.0000000E+000	0.0000000E+000	69.7905	0.0000000E+000	0.0000000E+000	0.0000000E+000	-69.7905	0.0000000E+000	0.0000000E+000	0.0000000E+000	-20.2095	0.0000000E+000	0.0000000E+000	0.0000000E+000	20.2095	2.71653	69.7905	7.95138e-06
31751	3.0024	0.434178	3.03363	-8.22854	155.756	0.43988	-0.0546272	11.545	0.236486	1	37	0.00521548	0.00171922	0	-0.000215259	1.23571	0.503971	24.6034	4.41012e-05	1.80266e-05	1.43861e-05	2.19406e-05	2.00116e-05	1.50778e-05	0.486882	0.404593	10.3688	1.80592e-06	3.22858e-06	2.55018e-06	3.00122e-06	4.08995e-06	3.20575e-06	0.326245	0.0471785	0.329638	8.22854	236.486	1635.33	1652.34	-81.7715	0.0000000E+000	0.0000000E+000	0.0000000E+000	81.7715	0.0000000E+000	0.0000000E+000	0.0000000E+000	-81.7715	0.0000000E+000	0.0000000E+000	0.0000000E+000	-8.22854	0.0000000E+000	0.0000000E+000	0.0000000E+000	8.22854	6.91512	81.7715	-1.94092e-05
2519.19	3.51745	3.78543	5.16739	-47.1016	168.825	0.439809	-0.00416171	16.6895	8.95637	1	38	0.00530401	0.00102644	0	-0.000374376	1.2437	0.631744	22.5289	3.68028e-05	2.81196e-05	2.7555e-05	1.64748e-05	2.23083e-05	1.40411e-05	0.300438	0.128516	2.88187	2.555e-06	8.24695e-07	4.36504e-07	1.11969e-06	5.49953e-07	6.27096e-07	0.13173	0.141766	0.193521	47.1016	8956.37	8322.31	12226.1	-42.8984	0.0000000E+000	0.0000000E+000	0.0000000E+000	42.8984	0.0000000E+000	0.0000000E+000	0.0000000E+000	-42.8984	0.0000000E+000	0.0000000E+000	0.0000000E+000	-47.1016	0.0000000E+000	0.0000000E+000	0.0000000E+000	47.1016	0.929206	42.8984	-2.07141e-06
199.936	8.48272	40.0857	40.9734	-78.0516	181.247	0.439799	-0.000122479	19.8582	19.007	1	39	0.00470618	0.000114859	0	-0.000385235	2.62311	1.43231	26.5776	4.51712e-05	4.39761e-05	4.35081e-05	4.1748e-05	4.4117e-05	5.89372e-05	1.06093	0.292031	10.72	7.86573e-07	5.09476e-07	2.97777e-07	6.28383e-07	1.4026e-07	2.61468e-07	0.0050528	0.0238773	0.0244061	78.0516	19007	4022.17	19427.9	-11.9484	0.0000000E+000	0.0000000E+000	0.0000000E+000	11.9484	0.0000000E+000	0.0000000E+000	0.0000000E+000	-11.9484	0.0000000E+000	0.0000000E+000	0.0000000E+000	-78.0516	0.0000000E+000	0.0000000E+000	0.0000000E+000	78.0516	0.211615	11.9484	6.48722e-08
15.879	158.555	374.481	406.664	-67.0523	193.327	0.439767	-9.67014e-06	26.7649	22.6962	1	40	0.0046041	1.13216e-05	0	-0.000385424	2.03033	1.26116	39.1186	3.67998e-05	5.23398e-05	2.3476e-05	2.76279e-05	4.05318e-05	3.73919e-05	1.15086	0.668296	19.0261	3.83992e-08	5.39293e-08	4.0501e-08	7.01855e-08	5.32632e-08	4.06245e-08	0.000958754	0.00226443	0.00245903	67.0523	22696.2	9609.55	24646.8	-22.9477	0.0000000E+000	0.0000000E+000	0.0000000E+000	22.9477	0.0000000E+000	0.0000000E+000	0.0000000E+000	-22.9477	0.0000000E+000	0.0000000E+000	0.0000000E+000	-67.0523	0.0000000E+000	0.0000000E+000	0.0000000E+000	67.0523	0.423398	22.9477	-4.99126e-08
1.25968	1237.9	402.399	1301.66	-18.0076	220.076	0.439786	-0.000105493	313.982	30.007	1	41	0.00459649	3.53126e-06	0	-0.000386092	0.833339	0.330632	13.0617	6.13724e-06	2.56925e-05	9.26302e-06	1.36894e-05	1.75892e-05	1.25953e-05	0.300334	0.133354	4.86595	7.0585e-09	4.33855e-09	2.66437e-09	3.07418e-09	4.25605e-09	1.4236e-09	0.000730618	0.000237499	0.00076825	18.0076	30007	92310.5	97065.2	-71.9924	0.0000000E+000	0.0000000E+000	0.0000000E+000	71.9924	0.0000000E+000	0.0000000E+000	0.0000000E+000	-71.9924	0.0000000E+000	0.0000000E+000	0.0000000E+000	-18.0076	0.0000000E+000	0.0000000E+000	0.0000000E+000	18.0076	3.0763	71.9924	-2.52579e-07
0.0999518	1561.38	223.275	1577.26	-8.13805	496.88	0.43977	-0.000319024	7131.63	142.91	1	41	0.00459608	2.91396e-06	0	-0.000405162	0.25271	0.169895	4.84334	4.5353e-06	5.15335e-06	3.17198e-06	6.50969e-06	3.37396e-06	4.19353e-06	0.208325	0.161153	2.65745	3.46019e-09	3.48534e-09	8.90498e-10	2.7307e-09	8.71546e-10	1.20163e-09	0.000627625	8.97497e-05	0.00063401	8.13805	142910	999379	1.00955e+06	-81.8619	0.0000000E+000	0.0000000E+000	0.0000000E+000	81.8619	0.0000000E+000	0.0000000E+000	0.0000000E+000	-81.8619	0.0000000E+000	0.0000000E+000	0.0000000E+000	-8.13805	0.0000000E+000	0.0000000E+000	0.0000000E+000	8.13805	6.99307	81.8619	-4.93923e-06
[...]
0.125939	1555.78	216.209	1570.73	-7.91181	792.81	0.439745	-0.000323268	5845.03	110.747	2	41	0.00490502	3.12276e-06	0	-0.000580087	0.296491	0.129064	3.85912	7.80729e-06	5.54692e-06	4.63496e-06	4.36584e-06	5.588e-06	3.48884e-06	0.213237	0.196335	3.49901	3.97076e-09	4.0998e-09	8.09091e-10	2.83997e-09	1.0587e-09	7.09937e-10	0.000630586	8.76335e-05	0.000636646	7.91181	110747	796903	804561	-82.0882	0.0000000E+000	0.0000000E+000	0.0000000E+000	82.0882	0.0000000E+000	0.0000000E+000	0.0000000E+000	-82.0882	0.0000000E+000	0.0000000E+000	0.0000000E+000	-7.91181	0.0000000E+000	0.0000000E+000	0.0000000E+000	7.91181	7.19572	82.0882	-4.94328e-06
50326.6	2.96791	0.316652	2.98475	-6.08997	867.866	0.439882	-0.0367417	9.98711	0.112406	3	37	0.00514669	0.00172433	0	-0.000701386	1.10387	0.556684	24.4947	3.6568e-05	1.7363e-05	1.65515e-05	2.07792e-05	2.28421e-05	1.16691e-05	0.58462	0.405234	10.279	4.90392e-06	3.94163e-06	3.02611e-06	2.38727e-06	3.50032e-06	3.99652e-06	0.333146	0.035544	0.335036	6.08997	112.406	1053.55	1059.53	-83.91	0.0000000E+000	0.0000000E+000	0.0000000E+000	83.91	0.0000000E+000	0.0000000E+000	0.0000000E+000	-83.91	0.0000000E+000	0.0000000E+000	0.0000000E+000	-6.08997	0.0000000E+000	0.0000000E+000	0.0000000E+000	6.08997	9.37276	83.91	-1.04999e-05
3993.72	3.3816	2.61604	4.27537	-37.7259	880.835	0.43972	-0.0037409	15.2335	5.70345	3	38	0.00544467	0.00127349	0	-0.00081734	1.23963	0.434347	22.6377	1.1979e-05	2.01122e-05	2.41343e-05	4.42967e-05	2.74862e-05	2.31311e-05	0.211009	0.0713686	2.36112	2.21526e-06	4.78592e-07	8.0779e-07	6.08273e-07	6.47402e-07	4.91712e-07	0.185001	0.143118	0.233898	37.7259	5703.45	7372.52	9321.12	-52.2741	0.0000000E+000	0.0000000E+000	0.0000000E+000	52.2741	0.0000000E+000	0.0000000E+000	0.0000000E+000	-52.2741	0.0000000E+000	0.0000000E+000	0.0000000E+000	-37.7259	0.0000000E+000	0.0000000E+000	0.0000000E+000	37.7259	1.29264	52.2741	-4.18314e-06
316.927	6.42	27.2278	27.9745	-76.7327	893.7	0.439741	-0.000144097	18.4437	17.4723	3	39	0.00498415	0.000178168	0	-0.000827044	1.2598	0.551545	25.1945	2.14607e-05	3.04263e-05	2.09069e-05	2.79801e-05	2.20174e-05	1.7427e-05	1.00015	0.187254	7.01206	1.37231e-06	5.41231e-07	2.8855e-07	8.40041e-07	2.0938e-07	2.07509e-07	0.00820373	0.0347928	0.0357469	76.7327	17472.3	4119.76	17951.4	-13.2673	0.0000000E+000	0.0000000E+000	0.0000000E+000	13.2673	0.0000000E+000	0.0000000E+000	0.0000000E+000	-13.2673	0.0000000E+000	0.0000000E+000	0.0000000E+000	-76.7327	0.0000000E+000	0.0000000E+000	0.0000000E+000	76.7327	0.235788	13.2673	-3.47738e-07
25.1691	85.1337	275.159	288.029	-72.808	905.884	0.439771	-0.000330815	22.981	20.9733	3	40	0.0047912	1.66345e-05	0	-0.000828696	2.06627	0.884894	37.6132	2.45371e-05	3.67354e-05	5.3941e-05	3.45153e-05	3.18458e-05	3.78141e-05	1.23696	0.344938	13.0464	1.24754e-07	7.97308e-08	6.4804e-08	1.06219e-07	3.44651e-08	3.97442e-08	0.0010262	0.00331675	0.00347188	72.808	20973.2	6489.08	21954.2	-17.192	0.0000000E+000	0.0000000E+000	0.0000000E+000	17.192	0.0000000E+000	0.0000000E+000	0.0000000E+000	-17.192	0.0000000E+000	0.0000000E+000	0.0000000E+000	-72.808	0.0000000E+000	0.0000000E+000	0.0000000E+000	72.808	0.309398	17.192	-1.26244e-07