Folder: Thesis/Python/Data/GoldElectrode/240322/Gold (part 5)

File: 240322-CVEIS-PostActivation-5mM_Fe2Fe3-1M_H2SO4-0225RPM-Ag_AgCl_BLF8-Au_RDE_01_CV_C15.mpt
EC-Lab ASCII FILE
Nb header lines : 60

Cyclic Voltammetry

Run on channel : 15 (SN 19485)
User :
Electrode connection : standard
Potential control : Ewe
Ewe ctrl range : min = -1.00 V, max = 1.00 V
Ewe,I filtering : <None>
Safety Limits :
	Do not start on E overload
Channel : Floating
Acquisition started on : 03/22/2024 11:37:10.055
Loaded Setting File :  C:\Data\mathias\GoldElectrode\240320-CVEIS_PostActivation-Fe2Fe3_5mM-HCl1M-0000RPM-Ag_AgCl_BLF8-Au_RDE.mps
Saved on :
	File : 240322-CVEIS-PostActivation-5mM_Fe2Fe3-1M_H2SO4-0225RPM-Ag_AgCl_BLF8-Au_RDE_01_CV_C15.mpr
	Directory : C:\Data\mathias\GoldElectrode\
	Host : 192.168.0.1
Device : VMP-300 (SN 0826)
Address : USB
EC-Lab for windows v11.52 (software)
Internet server v11.52 (firmware)
Command interpretor v11.52 (firmware)
Electrode material :
Initial state :
Electrolyte :
Comments :
Cable : special
Electrode surface area : 0.001 cm²
Characteristic mass : 0.001 g
Equivalent Weight : 0.000 g/eq.
Density : 0.000 g/cm3
Volume (V) : 0.001 cm³
Record EIS quality indicators
Cycle Definition : Charge/Discharge alternance
Ei (V)              0.000
vs.                 Eoc
dE/dt               20.000
dE/dt unit          mV/s
E1 (V)              0.700
vs.                 Ref
Step percent        50
N                   10
E range min (V)     -1.000
E range max (V)     1.000
I Range             Auto
I Range min         Unset
I Range max         Unset
I Range init        Unset
Bandwidth           8
E2 (V)              0.000
vs.                 Ref
nc cycles           1
Reverse Scan        1
Ef (V)              0.000
vs.                 Eoc

mode	ox/red	error	control changes	counter inc.	time/s	control/V	Ewe/V	<I>/mA	cycle number	(Q-Qo)/C	I Range	step time/s	P/W
2	0	0	0	0	0.000000000000000E+000	0.441167	0.440496	-0.000787906	1	0.0000000E+000	43	0.000000000000000E+000	-3.4707e-07
2	1	0	1	0	1.2232	0.465631	0.465038	0.104474	1	8.01332e-05	41	1.1794	4.85844e-05
2	1	0	1	0	2.4277	0.489719	0.48948	0.145136	1	0.000233784	40	2.3839	7.10414e-05
2	1	0	1	0	3.6021	0.513208	0.513013	0.165154	1	0.000418566	40	3.5583	8.47259e-05
2	1	0	1	0	4.7766	0.536697	0.536347	0.174588	1	0.000619911	40	4.7328	9.36398e-05
2	1	0	1	0	5.951	0.560186	0.559902	0.179088	1	0.000829294	40	5.9072	0.000100272
2	1	0	1	0	7.1254	0.583674	0.583461	0.181371	1	0.0010427	40	7.0816	0.000105823
2	1	0	1	0	8.2999	0.607164	0.606876	0.183573	1	0.00125874	40	8.2561	0.000111406
2	1	0	1	0	9.4743	0.630652	0.630242	0.184252	1	0.00147623	40	9.4305	0.000116123
2	1	0	1	0	10.6488	0.654141	0.653781	0.185419	1	0.00169463	40	10.605	0.000121223
2	1	0	1	0	11.8232	0.67763	0.677209	0.186132	1	0.00191409	40	11.7794	0.00012605
2	1	0	1	0	12.9558	0.69972	0.699404	0.187661	1	0.00212602	40	12.912	0.000131251
2	1	0	1	0	14.1302	0.676231	0.675984	0.186672	1	0.00234467	40	14.0864	0.000126187
2	1	0	1	0	15.3047	0.652742	0.652468	0.186013	1	0.0025623	40	15.2609	0.000121368
2	1	0	1	0	16.4791	0.629253	0.62891	0.1852	1	0.00277871	40	16.4353	0.000116474
2	1	0	1	0	17.6536	0.605764	0.605496	0.183622	1	0.00299364	40	17.6098	0.000111182
2	1	0	1	0	18.828	0.582275	0.581877	0.181152	1	0.00320601	40	18.7842	0.000105408
2	1	0	1	0	20.0025	0.558786	0.558613	0.176592	1	0.00341437	40	19.9587	9.86468e-05
2	1	0	1	0	21.1769	0.535298	0.534884	0.167255	1	0.00361515	40	21.1331	8.94623e-05
2	1	0	1	0	22.3514	0.511808	0.511504	0.149774	1	0.00380111	40	22.3076	7.66102e-05
2	1	0	1	0	23.5258	0.48832	0.487862	0.11473	1	0.00395741	40	23.482	5.59725e-05
2	1	0	1	0	24.7002	0.464831	0.464506	0.0526234	1	0.00405768	40	24.6564	2.44439e-05
2	0	0	1	0	25.9047	0.440742	0.440449	-0.0378171	1	0.00406804	41	0.4498	-1.66565e-05
2	0	0	1	0	27.1091	0.416654	0.41629	-0.125369	1	0.00396718	40	1.6542	-5.21898e-05
2	0	0	1	0	28.2835	0.393165	0.392782	-0.182037	1	0.00378258	40	2.8286	-7.15007e-05
2	0	0	1	0	29.458	0.369676	0.369427	-0.210629	1	0.0035492	40	4.0031	-7.78122e-05
2	0	0	1	0	30.6324	0.346187	0.345893	-0.224507	1	0.00329187	40	5.1775	-7.76555e-05
2	0	0	1	0	31.8069	0.322698	0.322407	-0.232494	1	0.0030224	40	6.352	-7.49579e-05
2	0	0	1	0	32.9813	0.299209	0.298863	-0.237266	1	0.00274566	40	7.5264	-7.09099e-05
2	0	0	1	0	34.1558	0.27572	0.275322	-0.240172	1	0.0024648	40	8.7009	-6.61245e-05
2	0	0	1	0	35.3302	0.252232	0.25186	-0.24214	1	0.00218098	40	9.8753	-6.09853e-05
2	0	0	1	0	36.5046	0.228744	0.228363	-0.243057	1	0.00189586	40	11.0497	-5.55052e-05
2	0	0	1	0	37.6791	0.205254	0.205038	-0.244203	1	0.00160936	40	12.2242	-5.0071e-05
2	0	0	1	0	38.8535	0.181765	0.181506	-0.244329	1	0.00132204	40	13.3986	-4.43473e-05
2	0	0	1	0	40.028	0.158276	0.157906	-0.244861	1	0.00103472	40	14.5731	-3.86649e-05
2	0	0	1	0	41.2024	0.134787	0.134515	-0.245497	1	0.000746564	40	15.7475	-3.3023e-05
2	0	0	1	0	42.3769	0.111298	0.111138	-0.24527	1	0.000458191	40	16.922	-2.72589e-05
2	0	0	1	0	43.5513	0.0878094	0.0874318	-0.24562	1	0.000169815	40	18.0964	-2.1475e-05
2	0	0	1	0	44.7258	0.0643205	0.0640932	-0.245987	1	-0.000119244	40	19.2709	-1.57661e-05
2	0	0	1	0	45.9002	0.0408317	0.0405184	-0.245456	1	-0.000407926	40	20.4453	-9.94551e-06
2	0	0	1	0	47.0746	0.0173441	0.0168928	-0.246216	1	-0.000696855	40	21.6197	-4.15929e-06
2	0	0	1	1	48.1793	0.00474874	0.00478798	-0.245449	1	-0.000968734	40	22.7244	-1.1752e-06
2	0	0	1	1	49.3538	0.0282376	0.0279992	-0.245643	1	-0.00125679	40	23.8989	-6.87781e-06
2	0	0	1	1	50.5282	0.0517265	0.0514662	-0.245086	1	-0.00154477	40	25.0733	-1.26136e-05
2	0	0	1	1	51.7027	0.0752154	0.0749447	-0.245013	1	-0.00183229	40	26.2478	-1.83624e-05
2	0	0	1	1	52.8771	0.0987043	0.0983702	-0.244939	1	-0.00211988	40	27.4222	-2.40947e-05
2	0	0	1	1	54.0516	0.122193	0.121675	-0.244257	1	-0.00240686	40	28.5967	-2.972e-05
2	0	0	1	1	55.226	0.145682	0.145462	-0.244518	1	-0.0026938	40	29.7711	-3.55681e-05
2	0	0	1	1	56.4004	0.169169	0.168907	-0.243742	1	-0.0029805	40	30.9455	-4.11698e-05
2	0	0	1	1	57.5749	0.19266	0.19236	-0.243511	1	-0.00326624	40	32.12	-4.68419e-05
2	0	0	1	1	58.7493	0.216149	0.215822	-0.242904	1	-0.0035518	40	33.2944	-5.24241e-05
2	0	0	1	1	59.9238	0.239638	0.239462	-0.241173	1	-0.00383571	40	34.4689	-5.77517e-05
2	0	0	1	1	61.0982	0.263126	0.262847	-0.239964	1	-0.0041178	40	35.6433	-6.30739e-05
2	0	0	1	1	62.2727	0.286615	0.286423	-0.236701	1	-0.00439757	40	36.8178	-6.77967e-05
2	0	0	1	1	63.4471	0.310104	0.309828	-0.231172	1	-0.004672	40	37.9922	-7.16237e-05
2	0	0	1	1	64.6216	0.333593	0.333268	-0.222058	1	-0.00493809	40	39.1667	-7.40048e-05
2	0	0	1	1	65.796	0.357082	0.356857	-0.202417	1	-0.00518777	40	40.3411	-7.22339e-05
2	0	0	1	1	66.9704	0.380569	0.380173	-0.165526	1	-0.00540502	40	41.5155	-6.29287e-05
2	0	0	1	1	68.1449	0.40406	0.403793	-0.100653	1	-0.00556347	40	42.69	-4.0643e-05
2	0	0	1	1	69.3493	0.428148	0.428131	-0.00802322	1	-0.00563011	41	43.8944	-3.43499e-06
2	1	0	1	1	70.4838	0.450838	0.450517	0.0757739	2	-0.00558981	41	1.0095	3.41374e-05
2	1	0	1	1	71.6882	0.474926	0.474607	0.133392	2	-0.00545977	40	2.2139	6.33086e-05
2	1	0	1	1	72.8627	0.498415	0.498021	0.161206	2	-0.00528367	40	3.3884	8.02842e-05
2	1	0	1	1	74.0371	0.521904	0.521499	0.172915	2	-0.00508515	40	4.5628	9.01752e-05
2	1	0	1	1	75.2116	0.545393	0.545062	0.178258	2	-0.00487673	40	5.7373	9.71615e-05
2	1	0	1	1	76.386	0.568882	0.568586	0.180863	2	-0.00466355	40	6.9117	0.000102836
2	1	0	1	1	77.5604	0.592371	0.592112	0.182155	2	-0.00444833	40	8.0861	0.000107856
[...]
2	1	0	1	1	90.4524	0.549792	0.549564	0.173971	2	-0.00207939	40	20.9781	9.5608e-05
2	1	0	1	1	91.6269	0.526302	0.525926	0.1621	2	-0.00188276	40	22.1526	8.52528e-05
2	1	0	1	1	92.8013	0.502813	0.502482	0.139236	2	-0.00170556	40	23.327	6.99637e-05
2	1	0	1	1	93.9758	0.479324	0.478997	0.0949696	2	-0.00156649	40	24.5015	4.54901e-05
2	1	0	1	1	95.1802	0.455235	0.454868	0.0184575	2	-0.00149572	41	25.7059	8.39573e-06
2	0	0	1	1	96.3547	0.431747	0.431243	-0.0734028	2	-0.00152781	41	0.8996	-3.16545e-05
2	0	0	1	1	97.5591	0.407658	0.407481	-0.151592	2	-0.00166677	40	2.104	-6.17708e-05
2	0	0	1	1	98.7335	0.384169	0.383944	-0.195469	2	-0.00187431	40	3.2784	-7.50493e-05
2	0	0	1	1	99.908	0.36068	0.360361	-0.216581	2	-0.00211871	40	4.4529	-7.80474e-05
2	0	0	1	1	101.082	0.337191	0.336768	-0.227888	2	-0.00238114	40	5.6273	-7.67454e-05
2	0	0	1	1	102.257	0.313702	0.313215	-0.234155	2	-0.00265372	40	6.8018	-7.33408e-05
2	0	0	1	1	103.431	0.290214	0.290033	-0.238373	2	-0.00293164	40	7.9762	-6.91359e-05
2	0	0	1	1	104.606	0.266724	0.266329	-0.241252	2	-0.00321386	40	9.1507	-6.42523e-05
2	0	0	1	1	105.78	0.243236	0.242909	-0.241796	2	-0.00349788	40	10.3251	-5.87344e-05
2	0	0	1	1	106.955	0.219747	0.219452	-0.243666	2	-0.00378333	40	11.4995	-5.34732e-05
2	0	0	1	1	108.129	0.196258	0.196061	-0.24403	2	-0.00407025	40	12.674	-4.78448e-05
2	0	0	1	1	109.303	0.172769	0.172346	-0.244284	2	-0.00435698	40	13.8484	-4.21014e-05
2	0	0	1	1	110.478	0.14928	0.148952	-0.245414	2	-0.00464468	40	15.0229	-3.65549e-05
2	0	0	1	1	111.652	0.125791	0.125558	-0.245036	2	-0.00493288	40	16.1973	-3.07663e-05
2	0	0	1	1	112.827	0.102303	0.102069	-0.245368	2	-0.00522108	40	17.3718	-2.50445e-05
2	0	0	1	1	114.001	0.0788137	0.0785763	-0.245754	2	-0.0055099	40	18.5462	-1.93104e-05
2	0	0	1	1	115.176	0.0553239	0.0549617	-0.245771	2	-0.00579848	40	19.7207	-1.3508e-05
2	0	0	1	1	116.35	0.0318359	0.0312332	-0.24596	2	-0.00608751	40	20.8951	-7.68212e-06
2	0	0	1	1	117.525	0.00834703	0.00823053	-0.245876	2	-0.00637646	40	22.0695	-2.02369e-06
2	0	0	1	0	118.629	0.0137445	0.0134249	-0.24548	2	-0.00664768	40	23.1742	-3.29555e-06
2	0	0	1	0	119.804	0.0372334	0.0370442	-0.244979	2	-0.00693569	40	24.3487	-9.07504e-06
2	0	0	1	0	120.978	0.0607222	0.0604632	-0.244986	2	-0.00722305	40	25.5231	-1.48127e-05
2	0	0	1	0	122.153	0.0842111	0.0838789	-0.245204	2	-0.00751076	40	26.6976	-2.05675e-05
2	0	0	1	0	123.327	0.1077	0.107525	-0.244259	2	-0.00779783	40	27.872	-2.6264e-05
2	0	0	1	0	124.502	0.131189	0.130812	-0.244654	2	-0.00808475	40	29.0465	-3.20037e-05
2	0	0	1	0	125.676	0.154678	0.154608	-0.24383	2	-0.00837161	40	30.2209	-3.7698e-05
2	0	0	1	0	126.85	0.178167	0.177806	-0.243163	2	-0.00865715	40	31.3953	-4.32358e-05
2	0	0	1	0	128.025	0.201656	0.20133	-0.243456	2	-0.00894278	40	32.5698	-4.9015e-05
2	0	0	1	0	129.199	0.225144	0.22493	-0.241574	2	-0.0092272	40	33.7442	-5.43372e-05
2	0	0	1	0	130.374	0.248633	0.248269	-0.240514	2	-0.00951004	40	34.9187	-5.97122e-05
2	0	0	1	0	131.548	0.272122	0.271904	-0.238501	2	-0.00979137	40	36.0931	-6.48492e-05
2	0	0	1	0	132.723	0.295611	0.295281	-0.234723	2	-0.0100688	40	37.2676	-6.93093e-05
2	0	0	1	0	133.897	0.3191	0.318859	-0.22857	2	-0.0103407	40	38.442	-7.28817e-05
2	0	0	1	0	135.072	0.34259	0.342208	-0.215484	2	-0.0106015	40	39.6165	-7.37402e-05
2	0	0	1	0	136.246	0.366078	0.365959	-0.191019	2	-0.0108407	40	40.7909	-6.99052e-05
2	0	0	1	0	137.42	0.389567	0.389222	-0.143829	2	-0.0110393	40	41.9653	-5.59812e-05
2	0	0	1	0	138.595	0.413055	0.412656	-0.0681487	2	-0.0111657	40	43.1398	-2.8122e-05
2	1	0	1	0	139.799	0.437144	0.436884	0.0276031	2	-0.0111899	41	0.3248	1.20594e-05
2	1	0	1	0	139.943	0.440018	0.439817	0.038642	2	-0.0111852	41	0.4685	1.69954e-05

File: 240322-CVEIS-PostActivation-5mM_Fe2Fe3-1M_H2SO4-0225RPM-Ag_AgCl_BLF8-Au_RDE_02_PEIS_C15.mpt
EC-Lab ASCII FILE
Nb header lines : 66

Potentio Electrochemical Impedance Spectroscopy

Run on channel : 15 (SN 19485)
User :
Electrode connection : standard
Potential control : Ewe
Ewe ctrl range : min = -1.00 V, max = 1.00 V
Ewe,I filtering : <None>
Safety Limits :
	Do not start on E overload
Channel : Floating
Acquisition started on : 03/22/2024 11:37:10.055
Loaded Setting File :  C:\Data\mathias\GoldElectrode\240320-CVEIS_PostActivation-Fe2Fe3_5mM-HCl1M-0000RPM-Ag_AgCl_BLF8-Au_RDE.mps
Saved on :
	File : 240322-CVEIS-PostActivation-5mM_Fe2Fe3-1M_H2SO4-0225RPM-Ag_AgCl_BLF8-Au_RDE_02_PEIS_C15.mpr
	Directory : C:\Data\mathias\GoldElectrode\
	Host : 192.168.0.1
Device : VMP-300 (SN 0826)
Address : USB
EC-Lab for windows v11.52 (software)
Internet server v11.52 (firmware)
Command interpretor v11.52 (firmware)
Electrode material :
Initial state :
Electrolyte :
Comments :
Cable : special
Electrode surface area : 0.001 cm²
Characteristic mass : 0.001 g
Equivalent Weight : 0.000 g/eq.
Density : 0.000 g/cm3
Volume (V) : 0.001 cm³
Record EIS quality indicators
Cycle Definition : Charge/Discharge alternance
Mode                Single sine
E (V)               0.0000
vs.                 Eoc
tE (h:m:s)          0:00:0.0000
record              0
dI                  0.000
unit dI             mA
dt (s)              0.000
fi                  400.000
unit fi             kHz
ff                  100.000
unit ff             mHz
Nd                  10
Points              per decade
spacing             Logarithmic
Va (mV)             5.0
pw                  0.10
Na                  3
corr                0
E range min (V)     -1.000
E range max (V)     1.000
I Range             Auto
Bandwidth           8
nc cycles           2
goto Ns'            0
nr cycles           0
inc. cycle          1

freq/Hz	Re(Z)/Ohm	-Im(Z)/Ohm	|Z|/Ohm	Phase(Z)/deg	time/s	<Ewe>/V	<I>/mA	Cs/µF	Cp/µF	cycle number	I Range	|Ewe|/V	|I|/A	Ns	(Q-Qo)/mA.h	THD Ewe/%	NSD Ewe/%	NSR Ewe/%	|Ewe h2|/V	|Ewe h3|/V	|Ewe h4|/V	|Ewe h5|/V	|Ewe h6|/V	|Ewe h7|/V	THD I/%	NSD I/%	NSR I/%	|I h2|/A	|I h3|/A	|I h4|/A	|I h5|/A	|I h6|/A	|I h7|/A	Re(Y)/Ohm-1	Im(Y)/Ohm-1	|Y|/Ohm-1	Phase(Y)/deg	Re(C)/nF	Im(C)/nF	|C|/nF	Phase(C)/deg	Re(M)	Im(M)	|M|	Phase(M)/deg	Re(Permittivity)	Im(Permittivity)	|Permittivity|	Phase(Permittivity)/deg	Re(Resistivity)/Ohm.cm	Im(Resistivity)/Ohm.cm	|Resistivity|/Ohm.cm	Phase(Resistivity)/deg	Re(Conductivity)/mS/cm	Im(Conductivity)/mS/cm	|Conductivity|/mS/cm	Phase(Conductivity)/deg	Tan(Delta)	Loss Angle(Delta)/deg	dq/mA.h
399996	3.19309	0.232336	3.20153	-4.16163	143.356	0.439847	-0.183734	1.71257	0.00901914	1	37	0.0045726	0.00142825	0	-7.35293e-05	-1	-1	-1	0	0	0	0	0	0	-1	-1	-1	0	0	0	0	0	0	0.311527	0.0226674	0.31235	4.16163	9.01914	123.954	124.281	-85.8384	0.0000000E+000	0.0000000E+000	0.0000000E+000	85.8384	0.0000000E+000	0.0000000E+000	0.0000000E+000	-85.8384	0.0000000E+000	0.0000000E+000	0.0000000E+000	-4.16163	0.0000000E+000	0.0000000E+000	0.0000000E+000	4.16163	13.7434	85.8384	-7.35293e-05
20032.3	2.79278	0.698453	2.87879	-14.0412	158.279	0.439848	-0.0604525	11.375	0.669586	1	37	0.00515722	0.00179146	0	-0.000387029	1.07084	0.616383	25.3351	2.07522e-05	1.76165e-05	1.77963e-05	2.86041e-05	1.35606e-05	2.0385e-05	0.617717	0.751644	10.011	5.59249e-06	4.28556e-06	3.24534e-06	4.71463e-06	4.02223e-06	3.61937e-06	0.336989	0.0842785	0.347368	14.0412	669.586	2677.35	2759.81	-75.9588	0.0000000E+000	0.0000000E+000	0.0000000E+000	75.9588	0.0000000E+000	0.0000000E+000	0.0000000E+000	-75.9588	0.0000000E+000	0.0000000E+000	0.0000000E+000	-14.0412	0.0000000E+000	0.0000000E+000	0.0000000E+000	14.0412	3.99852	75.9588	-2.06858e-05
1002.75	7.02887	9.26388	11.6286	-52.811	173.738	0.439714	-0.00750203	17.133	10.8734	1	38	0.00493433	0.000424326	0	-0.000494876	1.26811	0.714748	25.2115	3.32283e-05	2.49852e-05	1.57938e-05	2.71028e-05	2.10483e-05	2.32513e-05	0.550806	0.371477	6.90196	1.20327e-06	8.80226e-07	4.71804e-07	1.18708e-06	6.69921e-07	5.37627e-07	0.0519793	0.0685074	0.0859948	52.811	10873.4	8250.06	13648.9	-37.189	0.0000000E+000	0.0000000E+000	0.0000000E+000	37.189	0.0000000E+000	0.0000000E+000	0.0000000E+000	-37.189	0.0000000E+000	0.0000000E+000	0.0000000E+000	-52.811	0.0000000E+000	0.0000000E+000	0.0000000E+000	52.811	0.75874	37.189	-2.53964e-06
50.2089	36.097	14.2189	38.7965	-21.4999	188.277	0.439759	-0.00289729	222.933	29.9447	1	39	0.00476731	0.00012288	0	-0.000511393	1.23696	0.457015	27.0765	3.41823e-05	1.33527e-05	2.16288e-05	1.61008e-05	2.44236e-05	2.30748e-05	0.653717	0.17629	9.80963	5.52997e-07	2.95853e-07	2.92564e-07	2.55107e-07	1.45816e-07	2.11122e-07	0.023982	0.00944671	0.0257755	21.4999	29944.7	76019.6	81704.8	-68.5001	0.0000000E+000	0.0000000E+000	0.0000000E+000	68.5001	0.0000000E+000	0.0000000E+000	0.0000000E+000	-68.5001	0.0000000E+000	0.0000000E+000	0.0000000E+000	-21.4999	0.0000000E+000	0.0000000E+000	0.0000000E+000	21.4999	2.53867	68.5001	-9.73441e-07
2.51368	70.404	36.0886	79.1146	-27.1393	207.708	0.439733	-0.00251101	1754.45	365.063	1	40	0.00476206	6.01919e-05	0	-0.000525733	0.665326	0.500262	14.5075	7.5335e-06	1.48354e-05	9.7982e-06	1.00951e-05	1.24692e-05	1.62139e-05	0.376847	0.144672	1.39673	2.00754e-07	4.77146e-08	2.62447e-08	7.32839e-08	3.06211e-08	3.46783e-08	0.0112482	0.00576576	0.0126399	27.1393	365063	712189	800302	-62.8607	0.0000000E+000	0.0000000E+000	0.0000000E+000	62.8607	0.0000000E+000	0.0000000E+000	0.0000000E+000	-62.8607	0.0000000E+000	0.0000000E+000	0.0000000E+000	-27.1393	0.0000000E+000	0.0000000E+000	0.0000000E+000	27.1393	1.95087	62.8607	-2.15849e-06
0.125939	246.839	83.5773	260.604	-18.7056	441.025	0.439734	-0.00236238	15120.7	1555.2	1	41	0.00475118	1.82314e-05	0	-0.000673887	0.225461	0.215288	3.89285	4.33897e-06	4.50298e-06	3.98104e-06	5.98821e-06	2.75947e-06	3.06529e-06	0.504737	0.20019	0.603695	8.71452e-08	8.53667e-09	5.36977e-09	2.707e-08	3.59523e-09	3.92191e-09	0.00363455	0.00123063	0.00383724	18.7056	1.5552e+06	4.59316e+06	4.84931e+06	-71.2944	0.0000000E+000	0.0000000E+000	0.0000000E+000	71.2944	0.0000000E+000	0.0000000E+000	0.0000000E+000	-71.2944	0.0000000E+000	0.0000000E+000	0.0000000E+000	-18.7056	0.0000000E+000	0.0000000E+000	0.0000000E+000	18.7056	2.95342	71.2944	-2.65248e-05
31751	2.76094	0.561574	2.81747	-11.4971	518.434	0.439851	-0.0301347	8.92596	0.354609	2	37	0.00513588	0.00182287	0	-0.000892466	1.39908	0.877929	25.5049	1.97897e-05	3.28519e-05	2.46969e-05	1.16938e-05	4.57669e-05	1.61866e-05	0.526485	0.36772	9.68725	4.28241e-06	4.83094e-06	3.35411e-06	4.23238e-06	2.7217e-06	3.1675e-06	0.347806	0.0707437	0.354928	11.4971	354.609	1743.41	1779.11	-78.5029	0.0000000E+000	0.0000000E+000	0.0000000E+000	78.5029	0.0000000E+000	0.0000000E+000	0.0000000E+000	-78.5029	0.0000000E+000	0.0000000E+000	0.0000000E+000	-11.4971	0.0000000E+000	0.0000000E+000	0.0000000E+000	11.4971	4.91643	78.5029	-1.03928e-05
[...]
2519.19	3.73097	6.24363	7.27345	-59.139	892.304	0.43973	-0.00565313	10.1186	7.45617	3	38	0.00497696	0.000684264	0	-0.00144819	1.38799	0.759806	25.9444	1.18154e-05	1.82953e-05	1.78694e-05	4.34538e-05	3.0723e-05	2.40347e-05	0.483225	0.322677	4.32059	2.85696e-06	1.08402e-06	3.79712e-07	9.7373e-07	3.82736e-07	3.66453e-07	0.0705246	0.11802	0.137486	59.139	7456.17	4455.54	8685.98	-30.861	0.0000000E+000	0.0000000E+000	0.0000000E+000	30.861	0.0000000E+000	0.0000000E+000	0.0000000E+000	-30.861	0.0000000E+000	0.0000000E+000	0.0000000E+000	-59.139	0.0000000E+000	0.0000000E+000	0.0000000E+000	59.139	0.597564	30.861	-2.3966e-06
126.171	52.9918	45.1862	69.6414	-40.4543	907.158	0.439746	-0.00229734	27.9161	11.7525	3	39	0.004931	7.08056e-05	0	-0.0014633	1.30951	0.567609	26.7524	2.12621e-05	2.9564e-05	1.47204e-05	3.71644e-05	1.54007e-05	1.87439e-05	0.983588	0.373354	16.8922	2.17659e-07	3.93601e-07	3.0357e-07	3.06602e-07	1.55714e-07	1.95742e-07	0.0109263	0.00931689	0.0143593	40.4543	11752.5	13782.7	18113.1	-49.5457	0.0000000E+000	0.0000000E+000	0.0000000E+000	49.5457	0.0000000E+000	0.0000000E+000	0.0000000E+000	-49.5457	0.0000000E+000	0.0000000E+000	0.0000000E+000	-40.4543	0.0000000E+000	0.0000000E+000	0.0000000E+000	40.4543	1.17274	49.5457	-6.20935e-07
6.31569	117.101	30.1021	120.908	-14.4164	921.899	0.439769	-0.00204466	837.149	51.8904	3	40	0.00492716	4.07513e-05	0	-0.00147244	1.24407	0.870138	25.9209	2.86171e-05	1.62932e-05	2.16753e-05	3.02014e-05	2.60972e-05	1.71277e-05	0.269731	0.198976	3.69929	6.72522e-08	5.66482e-08	1.3033e-08	3.01309e-08	3.40107e-08	2.54357e-08	0.00801033	0.00205915	0.00827076	14.4164	51890.4	201860	208423	-75.5836	0.0000000E+000	0.0000000E+000	0.0000000E+000	75.5836	0.0000000E+000	0.0000000E+000	0.0000000E+000	-75.5836	0.0000000E+000	0.0000000E+000	0.0000000E+000	-14.4164	0.0000000E+000	0.0000000E+000	0.0000000E+000	14.4164	3.89012	75.5836	-1.1684e-06
0.316193	221.043	91.5541	239.254	-22.4989	1017.65	0.439739	-0.0020601	5497.81	805.06	3	41	0.00490732	2.05109e-05	0	-0.00152837	0.299374	0.171632	6.13794	4.46732e-06	4.21068e-06	6.90658e-06	4.60575e-06	7.11496e-06	5.83222e-06	0.359345	0.189738	0.467695	6.3133e-08	1.82287e-08	8.39213e-09	2.5025e-08	5.91177e-09	6.30537e-09	0.00386154	0.00159941	0.00417966	22.4989	805060	1.94369e+06	2.10382e+06	-67.5011	0.0000000E+000	0.0000000E+000	0.0000000E+000	67.5011	0.0000000E+000	0.0000000E+000	0.0000000E+000	-67.5011	0.0000000E+000	0.0000000E+000	0.0000000E+000	-22.4989	0.0000000E+000	0.0000000E+000	0.0000000E+000	22.4989	2.41435	67.5011	-1.0445e-05
0.0999518	328.903	73.4343	337.002	-12.586	1222.23	0.439737	-0.00205022	21683.6	1029.59	3	41	0.00490113	1.45433e-05	0	-0.00165012	0.238591	0.212855	5.593	5.46001e-06	5.2823e-06	5.74105e-06	2.84597e-06	2.77325e-06	4.69391e-06	0.382003	0.203872	0.435934	5.2557e-08	7.95557e-09	4.21142e-09	1.49937e-08	1.59962e-09	3.00017e-09	0.00289604	0.000646599	0.00296735	12.586	1.02959e+06	4.61141e+06	4.72496e+06	-77.414	0.0000000E+000	0.0000000E+000	0.0000000E+000	77.414	0.0000000E+000	0.0000000E+000	0.0000000E+000	-77.414	0.0000000E+000	0.0000000E+000	0.0000000E+000	-12.586	0.0000000E+000	0.0000000E+000	0.0000000E+000	12.586	4.47888	77.414	-3.91642e-05