Folder: Thesis/Python/Data/GoldElectrode/240322/Gold (part 3)

File: 240322-CVEIS-Activation-5mM_Fe2Fe3-1M_H2SO4-0000RPM-Ag_AgCl_BLF8-Au_RDE_08_PEIS_C15.mpt
EC-Lab ASCII FILE
Nb header lines : 66

Potentio Electrochemical Impedance Spectroscopy

Run on channel : 15 (SN 19485)
User :
Electrode connection : standard
Potential control : Ewe
Ewe ctrl range : min = -2.50 V, max = 2.50 V
Ewe,I filtering : 50 kHz
Safety Limits :
	Do not start on E overload
Channel : Floating
Acquisition started on : 03/22/2024 10:02:07.151
Loaded Setting File :  C:\Data\mathias\GoldElectrode\240321-CVEIS-Activation-5mM_Fe2Fe3-1M_H2SO4-0000RPM-Ag_AgCl_BLF8-Au_RDE.mps
Saved on :
	File : 240322-CVEIS-Activation-5mM_Fe2Fe3-1M_H2SO4-0000RPM-Ag_AgCl_BLF8-Au_RDE_08_PEIS_C15.mpr
	Directory : C:\Data\mathias\GoldElectrode\
	Host : 192.168.0.1
Device : VMP-300 (SN 0826)
Address : USB
EC-Lab for windows v11.52 (software)
Internet server v11.52 (firmware)
Command interpretor v11.52 (firmware)
Electrode material :
Initial state :
Electrolyte :
Comments :
Cable : special
Electrode surface area : 0.001 cm²
Characteristic mass : 0.001 g
Equivalent Weight : 0.000 g/eq.
Density : 0.000 g/cm3
Volume (V) : 0.001 cm³
Record EIS quality indicators
Cycle Definition : Charge/Discharge alternance
Mode                Single sine
E (V)               0.0000
vs.                 Eoc
tE (h:m:s)          0:00:0.0000
record              0
dI                  0.000
unit dI             mA
dt (s)              0.000
fi                  100.000
unit fi             kHz
ff                  100.000
unit ff             Hz
Nd                  10
Points              per decade
spacing             Logarithmic
Va (mV)             5.0
pw                  0.10
Na                  2
corr                0
E range min (V)     -2.500
E range max (V)     2.500
I Range             Auto
Bandwidth           8
nc cycles           0
goto Ns'            0
nr cycles           0
inc. cycle          0

freq/Hz	Re(Z)/Ohm	-Im(Z)/Ohm	|Z|/Ohm	Phase(Z)/deg	time/s	<Ewe>/V	<I>/mA	Cs/µF	Cp/µF	cycle number	I Range	|Ewe|/V	|I|/A	Ns	(Q-Qo)/mA.h	THD Ewe/%	NSD Ewe/%	NSR Ewe/%	|Ewe h2|/V	|Ewe h3|/V	|Ewe h4|/V	|Ewe h5|/V	|Ewe h6|/V	|Ewe h7|/V	THD I/%	NSD I/%	NSR I/%	|I h2|/A	|I h3|/A	|I h4|/A	|I h5|/A	|I h6|/A	|I h7|/A	Re(Y)/Ohm-1	Im(Y)/Ohm-1	|Y|/Ohm-1	Phase(Y)/deg	Re(C)/nF	Im(C)/nF	|C|/nF	Phase(C)/deg	Re(M)	Im(M)	|M|	Phase(M)/deg	Re(Permittivity)	Im(Permittivity)	|Permittivity|	Phase(Permittivity)/deg	Re(Resistivity)/Ohm.cm	Im(Resistivity)/Ohm.cm	|Resistivity|/Ohm.cm	Phase(Resistivity)/deg	Re(Conductivity)/mS/cm	Im(Conductivity)/mS/cm	|Conductivity|/mS/cm	Phase(Conductivity)/deg	Tan(Delta)	Loss Angle(Delta)/deg	dq/mA.h
100004	2.73288	0.114345	2.73527	-2.39588	1162.93	0.441889	-0.0587589	13.9183	0.0243231	1	37	0.00484515	0.00177136	0	2.27457e-05	1.35272	0.694694	26.8391	2.17107e-05	3.28035e-05	1.94619e-05	2.03227e-05	1.82015e-05	3.80913e-05	0.494677	0.371316	9.74943	3.92906e-06	3.54278e-06	2.28303e-06	4.6072e-06	3.34032e-06	3.05321e-06	0.365275	0.0152832	0.365594	2.39588	24.3231	581.331	581.84	-87.6041	0.0000000E+000	0.0000000E+000	0.0000000E+000	87.6041	0.0000000E+000	0.0000000E+000	0.0000000E+000	-87.6041	0.0000000E+000	0.0000000E+000	0.0000000E+000	-2.39588	0.0000000E+000	0.0000000E+000	0.0000000E+000	2.39588	23.9003	87.6041	2.27457e-05
63093.8	2.72231	0.172588	2.72777	-3.62757	1164.56	0.44187	-0.081446	14.6158	0.0585097	1	37	0.0051539	0.00188942	0	-6.89578e-06	1.0289	0.725603	25.5809	2.53873e-05	1.1413e-05	2.1335e-05	2.17105e-05	1.81781e-05	1.46838e-05	0.529041	0.401434	9.20438	6.75976e-06	1.11296e-06	5.06474e-06	1.41141e-06	3.20005e-06	3.75404e-06	0.365865	0.023195	0.3666	3.62757	58.5098	922.899	924.752	-86.3724	0.0000000E+000	0.0000000E+000	0.0000000E+000	86.3724	0.0000000E+000	0.0000000E+000	0.0000000E+000	-86.3724	0.0000000E+000	0.0000000E+000	0.0000000E+000	-3.62757	0.0000000E+000	0.0000000E+000	0.0000000E+000	3.62757	15.7734	86.3724	-1.64626e-05
39814.1	2.73461	0.290093	2.74996	-6.05541	1166.19	0.441899	-0.0806829	13.7799	0.153345	1	37	0.00512297	0.00186293	0	-4.77909e-05	1.61912	0.673925	25.607	6.37773e-05	1.9982e-05	2.24163e-05	1.70137e-05	1.94149e-05	3.01573e-05	0.488715	0.339668	9.41393	2.52016e-06	3.90748e-06	2.45624e-06	3.44665e-06	3.12806e-06	5.23472e-06	0.361613	0.0383607	0.363642	6.05541	153.345	1445.53	1453.64	-83.9446	0.0000000E+000	0.0000000E+000	0.0000000E+000	83.9446	0.0000000E+000	0.0000000E+000	0.0000000E+000	-83.9446	0.0000000E+000	0.0000000E+000	0.0000000E+000	-6.05541	0.0000000E+000	0.0000000E+000	0.0000000E+000	6.05541	9.42666	83.9446	-1.97635e-05
25116.9	2.77638	0.435604	2.81034	-8.91683	1167.82	0.441885	-0.0795477	14.5466	0.349485	1	37	0.00515013	0.00183256	0	-8.55701e-05	1.35139	0.907236	26.0704	2.75033e-05	4.28495e-05	1.84881e-05	2.38303e-05	2.49785e-05	1.88043e-05	0.666502	0.277482	9.61216	4.81825e-06	4.99585e-06	5.64042e-06	3.75551e-06	6.20139e-06	3.63714e-06	0.351528	0.0551537	0.355829	8.91683	349.485	2227.48	2254.73	-81.0832	0.0000000E+000	0.0000000E+000	0.0000000E+000	81.0832	0.0000000E+000	0.0000000E+000	0.0000000E+000	-81.0832	0.0000000E+000	0.0000000E+000	0.0000000E+000	-8.91683	0.0000000E+000	0.0000000E+000	0.0000000E+000	8.91683	6.37362	81.0832	-1.88973e-05
15847.7	2.85749	0.627061	2.92548	-12.3771	1169.45	0.441872	-0.0775935	16.0156	0.735816	1	37	0.00512888	0.00175317	0	-0.000120624	1.89444	1.1373	25.6927	3.12246e-05	5.03466e-05	3.77372e-05	4.56478e-05	3.51754e-05	1.30915e-05	0.431611	0.345561	10.0048	2.78041e-06	3.41937e-06	2.69994e-06	2.83059e-06	3.00696e-06	2.02495e-06	0.333879	0.0732681	0.341824	12.3771	735.816	3353.08	3432.87	-77.6229	0.0000000E+000	0.0000000E+000	0.0000000E+000	77.6229	0.0000000E+000	0.0000000E+000	0.0000000E+000	-77.6229	0.0000000E+000	0.0000000E+000	0.0000000E+000	-12.3771	0.0000000E+000	0.0000000E+000	0.0000000E+000	12.3771	4.55695	77.6229	-1.79372e-05
10002.2	2.9632	0.917305	3.10193	-17.2007	1171.08	0.441886	-0.0839213	17.3464	1.51695	1	37	0.00497783	0.00160475	0	-0.000155531	1.1501	0.6388	26.1341	2.08041e-05	1.94217e-05	2.17547e-05	8.63833e-06	4.00793e-05	1.58725e-05	0.595616	0.334152	11.0261	5.52411e-06	3.57277e-06	4.65539e-06	3.3335e-06	1.67737e-06	2.56416e-06	0.307961	0.0953342	0.32238	17.2007	1516.95	4900.26	5129.69	-72.7993	0.0000000E+000	0.0000000E+000	0.0000000E+000	72.7993	0.0000000E+000	0.0000000E+000	0.0000000E+000	-72.7993	0.0000000E+000	0.0000000E+000	0.0000000E+000	-17.2007	0.0000000E+000	0.0000000E+000	0.0000000E+000	17.2007	3.23033	72.7993	-1.53425e-05
6307.74	3.15152	1.34798	3.4277	-23.1576	1172.83	0.441764	-0.0826743	18.7181	2.89484	1	37	0.00498931	0.00145559	0	-0.000191801	1.35876	1.35371	25.8514	4.20294e-05	2.26976e-05	2.95974e-05	1.66765e-05	2.35199e-05	2.07589e-05	0.683332	0.431417	12.3006	5.11065e-06	3.8842e-06	1.65975e-06	3.36262e-06	5.7034e-06	2.49123e-06	0.268234	0.11473	0.291741	23.1576	2894.84	6768.01	7361.12	-66.8424	0.0000000E+000	0.0000000E+000	0.0000000E+000	66.8424	0.0000000E+000	0.0000000E+000	0.0000000E+000	-66.8424	0.0000000E+000	0.0000000E+000	0.0000000E+000	-23.1576	0.0000000E+000	0.0000000E+000	0.0000000E+000	23.1576	2.33795	66.8424	-1.88421e-05
[...]
631.01	7.50436	4.27191	8.63508	-29.651	1180.75	0.441748	-0.00580767	59.0421	14.4502	1	38	0.00484332	0.000560889	0	-0.000221601	1.44766	0.270952	26.4537	2.69715e-05	1.30957e-05	5.11366e-05	1.98008e-05	1.89822e-05	1.93356e-05	0.497004	0.138091	5.27207	2.26794e-06	3.87713e-07	8.65166e-07	9.40713e-07	5.66922e-07	6.13565e-07	0.100642	0.0572914	0.115807	29.651	14450.2	25384.3	29209.1	-60.349	0.0000000E+000	0.0000000E+000	0.0000000E+000	60.349	0.0000000E+000	0.0000000E+000	0.0000000E+000	-60.349	0.0000000E+000	0.0000000E+000	0.0000000E+000	-29.651	0.0000000E+000	0.0000000E+000	0.0000000E+000	29.651	1.75668	60.349	-5.52216e-07
398.089	8.82899	4.57842	9.9455	-27.4097	1182.24	0.441765	-0.00601621	87.3221	18.5056	1	38	0.00479512	0.000482139	0	-0.000223356	1.60014	0.651592	26.4381	1.04287e-05	2.08046e-05	1.59552e-05	3.65002e-05	4.83275e-05	3.0991e-05	0.67819	0.153843	6.09135	2.59471e-06	7.96472e-07	4.16576e-07	1.12787e-06	7.56308e-07	9.34482e-07	0.0892602	0.0462873	0.100548	27.4097	18505.6	35686	40198.8	-62.5902	0.0000000E+000	0.0000000E+000	0.0000000E+000	62.5902	0.0000000E+000	0.0000000E+000	0.0000000E+000	-62.5902	0.0000000E+000	0.0000000E+000	0.0000000E+000	-27.4097	0.0000000E+000	0.0000000E+000	0.0000000E+000	27.4097	1.92839	62.5902	-1.1089e-06
251.206	10.1544	4.96511	11.3033	-26.0567	1183.72	0.441776	-0.00515041	127.603	24.6211	1	38	0.00477397	0.000422351	0	-0.000224907	1.43091	0.68838	27.1662	1.98094e-05	2.86541e-05	3.73409e-05	2.57945e-05	2.32037e-05	2.45456e-05	0.709429	0.261507	7.00611	2.43716e-06	1.1326e-06	4.14727e-07	8.10575e-07	4.02144e-07	4.09589e-07	0.0794775	0.0388613	0.0884696	26.0567	24621.1	50354.1	56051.1	-63.9433	0.0000000E+000	0.0000000E+000	0.0000000E+000	63.9433	0.0000000E+000	0.0000000E+000	0.0000000E+000	-63.9433	0.0000000E+000	0.0000000E+000	0.0000000E+000	-26.0567	0.0000000E+000	0.0000000E+000	0.0000000E+000	26.0567	2.04516	63.9433	-4.77904e-07
158.529	11.5369	5.60371	12.8258	-25.9068	1185.21	0.441775	-0.00426972	179.158	34.1993	1	38	0.00477533	0.000372322	0	-0.000227401	1.47024	0.671269	26.3103	2.45794e-05	3.10902e-05	2.22925e-05	3.19526e-05	3.4007e-05	1.60975e-05	0.694093	0.214053	7.86502	2.27025e-06	3.36978e-07	7.12265e-07	4.95835e-07	4.08734e-07	4.58256e-07	0.0701325	0.0340648	0.0779678	25.9068	34199.3	70409.4	78275.7	-64.0932	0.0000000E+000	0.0000000E+000	0.0000000E+000	64.0932	0.0000000E+000	0.0000000E+000	0.0000000E+000	-64.0932	0.0000000E+000	0.0000000E+000	0.0000000E+000	-25.9068	0.0000000E+000	0.0000000E+000	0.0000000E+000	25.9068	2.05879	64.0932	-1.39937e-06
99.9682	12.9316	6.38877	14.4237	-26.2914	1186.69	0.441791	-0.00492884	249.196	48.8905	1	38	0.00473757	0.000328458	0	-0.000228813	1.26191	0.764439	26.7878	1.17917e-05	2.72702e-05	4.13121e-05	1.9467e-05	2.2442e-05	6.06398e-06	0.781456	0.31592	9.09572	2.20759e-06	5.50033e-07	3.40605e-07	8.62323e-07	2.85075e-07	3.12642e-07	0.0621585	0.030709	0.0693305	26.2914	48890.5	98959.8	110378	-63.7086	0.0000000E+000	0.0000000E+000	0.0000000E+000	63.7086	0.0000000E+000	0.0000000E+000	0.0000000E+000	-63.7086	0.0000000E+000	0.0000000E+000	0.0000000E+000	-26.2914	0.0000000E+000	0.0000000E+000	0.0000000E+000	26.2914	2.02411	63.7086	-9.04851e-07

File: 240322-CVEIS-Activation-5mM_Fe2Fe3-1M_H2SO4-0000RPM-Ag_AgCl_BLF8-Au_RDE_10_PEIS_C15.mpt
EC-Lab ASCII FILE
Nb header lines : 66

Potentio Electrochemical Impedance Spectroscopy

Run on channel : 15 (SN 19485)
User :
Electrode connection : standard
Potential control : Ewe
Ewe ctrl range : min = -2.50 V, max = 2.50 V
Ewe,I filtering : 50 kHz
Safety Limits :
	Do not start on E overload
Channel : Floating
Acquisition started on : 03/22/2024 10:02:07.151
Loaded Setting File :  C:\Data\mathias\GoldElectrode\240321-CVEIS-Activation-5mM_Fe2Fe3-1M_H2SO4-0000RPM-Ag_AgCl_BLF8-Au_RDE.mps
Saved on :
	File : 240322-CVEIS-Activation-5mM_Fe2Fe3-1M_H2SO4-0000RPM-Ag_AgCl_BLF8-Au_RDE_10_PEIS_C15.mpr
	Directory : C:\Data\mathias\GoldElectrode\
	Host : 192.168.0.1
Device : VMP-300 (SN 0826)
Address : USB
EC-Lab for windows v11.52 (software)
Internet server v11.52 (firmware)
Command interpretor v11.52 (firmware)
Electrode material :
Initial state :
Electrolyte :
Comments :
Cable : special
Electrode surface area : 0.001 cm²
Characteristic mass : 0.001 g
Equivalent Weight : 0.000 g/eq.
Density : 0.000 g/cm3
Volume (V) : 0.001 cm³
Record EIS quality indicators
Cycle Definition : Charge/Discharge alternance
Mode                Single sine
E (V)               0.0000
vs.                 Eoc
tE (h:m:s)          0:00:0.0000
record              0
dI                  0.000
unit dI             mA
dt (s)              0.000
fi                  100.000
unit fi             kHz
ff                  100.000
unit ff             Hz
Nd                  10
Points              per decade
spacing             Logarithmic
Va (mV)             5.0
pw                  0.10
Na                  2
corr                0
E range min (V)     -2.500
E range max (V)     2.500
I Range             Auto
Bandwidth           8
nc cycles           0
goto Ns'            0
nr cycles           0
inc. cycle          0

freq/Hz	Re(Z)/Ohm	-Im(Z)/Ohm	|Z|/Ohm	Phase(Z)/deg	time/s	<Ewe>/V	<I>/mA	Cs/µF	Cp/µF	cycle number	I Range	|Ewe|/V	|I|/A	Ns	(Q-Qo)/mA.h	THD Ewe/%	NSD Ewe/%	NSR Ewe/%	|Ewe h2|/V	|Ewe h3|/V	|Ewe h4|/V	|Ewe h5|/V	|Ewe h6|/V	|Ewe h7|/V	THD I/%	NSD I/%	NSR I/%	|I h2|/A	|I h3|/A	|I h4|/A	|I h5|/A	|I h6|/A	|I h7|/A	Re(Y)/Ohm-1	Im(Y)/Ohm-1	|Y|/Ohm-1	Phase(Y)/deg	Re(C)/nF	Im(C)/nF	|C|/nF	Phase(C)/deg	Re(M)	Im(M)	|M|	Phase(M)/deg	Re(Permittivity)	Im(Permittivity)	|Permittivity|	Phase(Permittivity)/deg	Re(Resistivity)/Ohm.cm	Im(Resistivity)/Ohm.cm	|Resistivity|/Ohm.cm	Phase(Resistivity)/deg	Re(Conductivity)/mS/cm	Im(Conductivity)/mS/cm	|Conductivity|/mS/cm	Phase(Conductivity)/deg	Tan(Delta)	Loss Angle(Delta)/deg	dq/mA.h
100004	2.74813	0.112326	2.75042	-2.34059	1549.51	0.441917	-0.0548133	14.1685	0.0236313	1	37	0.00485874	0.00176655	0	2.65822e-05	1.07165	0.553665	27.2186	1.62884e-05	3.43062e-05	1.25098e-05	1.46609e-05	2.52804e-05	1.19021e-05	0.562005	0.490513	9.79252	3.67662e-06	5.15968e-06	5.01958e-06	2.84973e-06	4.05263e-06	1.96277e-06	0.363278	0.0148485	0.363581	2.34059	23.6313	578.153	578.635	-87.6594	0.0000000E+000	0.0000000E+000	0.0000000E+000	87.6594	0.0000000E+000	0.0000000E+000	0.0000000E+000	-87.6594	0.0000000E+000	0.0000000E+000	0.0000000E+000	-2.34059	0.0000000E+000	0.0000000E+000	0.0000000E+000	2.34059	24.4655	87.6594	2.65822e-05
63093.8	2.72062	0.186888	2.72704	-3.92966	1551.14	0.441877	-0.0724009	13.4974	0.063392	1	37	0.00517077	0.00189611	0	-3.34712e-07	1.19347	0.786709	24.9696	4.48289e-05	2.07681e-05	2.2008e-05	1.39522e-05	9.83352e-06	2.06498e-05	0.457688	0.350256	9.2509	6.2698e-06	2.32622e-06	1.78641e-06	1.95799e-06	4.24864e-06	1.94429e-06	0.365836	0.0251305	0.366699	3.92966	63.3919	922.827	925.002	-86.0703	0.0000000E+000	0.0000000E+000	0.0000000E+000	86.0703	0.0000000E+000	0.0000000E+000	0.0000000E+000	-86.0703	0.0000000E+000	0.0000000E+000	0.0000000E+000	-3.92966	0.0000000E+000	0.0000000E+000	0.0000000E+000	3.92966	14.5575	86.0703	-1.31542e-05
39814.1	2.74833	0.26211	2.7608	-5.44787	1552.77	0.441871	-0.080199	15.251	0.137467	1	37	0.00516898	0.00187228	0	-2.77142e-05	1.60232	0.699243	25.2467	5.3884e-05	3.00654e-05	2.5127e-05	3.33168e-05	2.69813e-05	1.78904e-05	0.636294	0.347341	9.39715	5.31382e-06	4.66033e-06	3.97567e-06	4.83331e-06	5.33261e-06	2.88766e-06	0.360578	0.0343886	0.362214	5.44787	137.467	1441.39	1447.93	-84.5521	0.0000000E+000	0.0000000E+000	0.0000000E+000	84.5521	0.0000000E+000	0.0000000E+000	0.0000000E+000	-84.5521	0.0000000E+000	0.0000000E+000	0.0000000E+000	-5.44787	0.0000000E+000	0.0000000E+000	0.0000000E+000	5.44787	10.4854	84.5521	-1.44872e-05
25116.9	2.78146	0.420068	2.813	-8.58815	1554.4	0.44189	-0.0847774	15.0846	0.336382	1	37	0.00520545	0.0018505	0	-6.2899e-05	1.09747	0.83291	25.4401	1.68594e-05	1.76269e-05	1.93684e-05	7.8014e-06	2.47413e-05	3.5963e-05	0.604348	0.226627	9.53749	2.70644e-06	6.4227e-06	5.8014e-06	3.09005e-06	2.89771e-06	3.39952e-06	0.351506	0.0530859	0.355492	8.58815	336.382	2227.34	2252.6	-81.4119	0.0000000E+000	0.0000000E+000	0.0000000E+000	81.4119	0.0000000E+000	0.0000000E+000	0.0000000E+000	-81.4119	0.0000000E+000	0.0000000E+000	0.0000000E+000	-8.58815	0.0000000E+000	0.0000000E+000	0.0000000E+000	8.58815	6.62146	81.4119	-1.49148e-05
15847.7	2.8355	0.607418	2.89983	-12.0911	1556.03	0.441911	-0.0830466	16.5336	0.72543	1	37	0.00508197	0.0017525	0	-0.000101505	1.02724	0.704613	26.0955	9.55721e-06	1.86352e-05	9.88339e-06	2.21137e-05	2.68967e-05	2.42953e-05	0.45174	0.251522	10.0078	2.56036e-06	5.17107e-06	4.18414e-06	1.90294e-06	2.09149e-06	9.66367e-07	0.337197	0.072234	0.344847	12.0911	725.431	3386.4	3463.23	-77.9089	0.0000000E+000	0.0000000E+000	0.0000000E+000	77.9089	0.0000000E+000	0.0000000E+000	0.0000000E+000	-77.9089	0.0000000E+000	0.0000000E+000	0.0000000E+000	-12.0911	0.0000000E+000	0.0000000E+000	0.0000000E+000	12.0911	4.66812	77.9089	-1.72016e-05
10002.2	2.94711	0.870732	3.07305	-16.4599	1557.66	0.441878	-0.0841446	18.2742	1.46713	1	37	0.00513765	0.00167184	0	-0.000141119	1.28839	0.661908	26.3589	1.59897e-05	3.64126e-05	2.64975e-05	2.76099e-05	2.52774e-05	1.33785e-05	0.440336	0.204879	10.6827	1.7456e-06	3.33827e-06	2.22674e-06	2.0856e-06	4.40068e-06	3.27495e-06	0.312074	0.092203	0.32541	16.4599	1467.13	4965.7	5177.9	-73.5401	0.0000000E+000	0.0000000E+000	0.0000000E+000	73.5401	0.0000000E+000	0.0000000E+000	0.0000000E+000	-73.5401	0.0000000E+000	0.0000000E+000	0.0000000E+000	-16.4599	0.0000000E+000	0.0000000E+000	0.0000000E+000	16.4599	3.38464	73.5401	-1.94117e-05
6307.74	3.16785	1.26981	3.41287	-21.843	1559.42	0.441801	-0.0834932	19.8705	2.75071	1	37	0.00499415	0.00146333	0	-0.000184068	1.23438	1.43343	26.7618	3.71939e-05	2.92248e-05	9.82999e-06	1.36822e-05	1.95531e-05	2.43139e-05	0.561708	0.315157	12.2176	3.237e-06	2.06724e-06	3.18886e-06	2.92862e-06	2.15334e-06	5.23363e-06	0.271972	0.109018	0.293008	21.843	2750.71	6862.32	7393.1	-68.157	0.0000000E+000	0.0000000E+000	0.0000000E+000	68.157	0.0000000E+000	0.0000000E+000	0.0000000E+000	-68.157	0.0000000E+000	0.0000000E+000	0.0000000E+000	-21.843	0.0000000E+000	0.0000000E+000	0.0000000E+000	21.843	2.49474	68.157	-2.15721e-05
[...]
631.01	7.09682	3.89015	8.09309	-28.7295	1567.34	0.441792	-0.00438701	64.8363	14.9803	1	38	0.0048376	0.000597744	0	-0.000219657	1.21465	0.901215	25.9156	1.27348e-05	3.94488e-05	1.41448e-05	1.95573e-05	1.77722e-05	2.60417e-05	0.530842	0.165355	4.91357	2.4021e-06	1.22575e-06	9.35781e-07	9.38901e-07	5.80257e-07	4.61855e-07	0.108352	0.0593933	0.123562	28.7295	14980.3	27328.7	31165.2	-61.2705	0.0000000E+000	0.0000000E+000	0.0000000E+000	61.2705	0.0000000E+000	0.0000000E+000	0.0000000E+000	-61.2705	0.0000000E+000	0.0000000E+000	0.0000000E+000	-28.7295	0.0000000E+000	0.0000000E+000	0.0000000E+000	28.7295	1.82431	61.2705	-7.34558e-07
398.089	8.25658	4.28562	9.30256	-27.4318	1568.83	0.441818	-0.00358452	93.2882	19.7992	1	38	0.00478836	0.000514736	0	-0.000220488	1.79141	0.760353	26.9688	1.14295e-05	4.11238e-05	2.66588e-05	1.55664e-05	4.67755e-05	1.8748e-05	0.603021	0.137399	5.89778	2.48279e-06	3.21533e-07	2.4402e-07	9.92707e-07	7.46322e-07	1.10982e-06	0.0954103	0.0495231	0.107497	27.4318	19799.2	38144.8	42977.1	-62.5682	0.0000000E+000	0.0000000E+000	0.0000000E+000	62.5682	0.0000000E+000	0.0000000E+000	0.0000000E+000	-62.5682	0.0000000E+000	0.0000000E+000	0.0000000E+000	-27.4318	0.0000000E+000	0.0000000E+000	0.0000000E+000	27.4318	1.92658	62.5682	-4.96737e-07
251.206	9.45502	4.74169	10.5774	-26.6338	1570.31	0.441791	-0.00285278	133.615	26.8514	1	38	0.0047698	0.000450943	0	-0.000221637	0.948303	0.776985	27.2739	1.52515e-05	1.20314e-05	1.52014e-05	2.48815e-05	2.20384e-05	1.18978e-05	0.722692	0.240848	6.59735	2.91994e-06	4.31857e-07	4.2993e-07	8.94525e-07	6.85249e-07	5.27445e-07	0.0845095	0.0423815	0.0945413	26.6338	26851.4	53542.2	59897.9	-63.3662	0.0000000E+000	0.0000000E+000	0.0000000E+000	63.3662	0.0000000E+000	0.0000000E+000	0.0000000E+000	-63.3662	0.0000000E+000	0.0000000E+000	0.0000000E+000	-26.6338	0.0000000E+000	0.0000000E+000	0.0000000E+000	26.6338	1.99402	63.3662	-2.6457e-07
158.529	10.7429	5.32689	11.9911	-26.3746	1571.8	0.441801	-0.00353798	188.468	37.1937	1	38	0.0047597	0.000396937	0	-0.000223892	1.33207	0.542317	26.4263	1.73703e-05	2.64803e-05	1.46471e-05	4.5127e-05	2.05801e-05	1.55401e-05	0.635256	0.129355	7.54415	2.144e-06	4.13032e-07	4.09792e-07	7.40911e-07	5.9021e-07	5.93563e-07	0.0747147	0.0370474	0.0833954	26.3746	37193.7	75009.7	83724.7	-63.6254	0.0000000E+000	0.0000000E+000	0.0000000E+000	63.6254	0.0000000E+000	0.0000000E+000	0.0000000E+000	-63.6254	0.0000000E+000	0.0000000E+000	0.0000000E+000	-26.3746	0.0000000E+000	0.0000000E+000	0.0000000E+000	26.3746	2.01673	63.6254	-1.10871e-06
99.9682	12.1681	6.19049	13.6522	-26.9647	1573.28	0.441815	-0.00274666	257.178	52.878	1	38	0.00476474	0.000349008	0	-0.000224687	1.89393	1.28914	26.8184	3.27969e-05	3.78502e-05	1.48675e-05	2.01264e-05	3.57538e-05	5.64813e-05	0.887355	0.405624	8.44923	2.35747e-06	1.16868e-06	7.1433e-07	6.77943e-07	5.54977e-07	9.93494e-07	0.065285	0.0332137	0.073248	26.9647	52878	103937	116615	-63.0353	0.0000000E+000	0.0000000E+000	0.0000000E+000	63.0353	0.0000000E+000	0.0000000E+000	0.0000000E+000	-63.0353	0.0000000E+000	0.0000000E+000	0.0000000E+000	-26.9647	0.0000000E+000	0.0000000E+000	0.0000000E+000	26.9647	1.9656	63.0353	-5.28457e-07