Folder: Thesis/Python/Data/GoldElectrode/240322/Gold (part 4)

File: 240322-CVEIS-PostActivation-5mM_Fe2Fe3-1M_H2SO4-0000RPM-Ag_AgCl_BLF8-Au_RDE_01_CV_C15.mpt
EC-Lab ASCII FILE
Nb header lines : 60

Cyclic Voltammetry

Run on channel : 15 (SN 19485)
User :
Electrode connection : standard
Potential control : Ewe
Ewe ctrl range : min = -1.00 V, max = 1.00 V
Ewe,I filtering : <None>
Safety Limits :
	Do not start on E overload
Channel : Floating
Acquisition started on : 03/22/2024 10:39:57.841
Loaded Setting File :  C:\Data\mathias\GoldElectrode\240320-CVEIS_PostActivation-Fe2Fe3_5mM-HCl1M-0000RPM-Ag_AgCl_BLF8-Au_RDE.mps
Saved on :
	File : 240322-CVEIS-PostActivation-5mM_Fe2Fe3-1M_H2SO4-0000RPM-Ag_AgCl_BLF8-Au_RDE_01_CV_C15.mpr
	Directory : C:\Data\mathias\GoldElectrode\
	Host : 192.168.0.1
Device : VMP-300 (SN 0826)
Address : USB
EC-Lab for windows v11.52 (software)
Internet server v11.52 (firmware)
Command interpretor v11.52 (firmware)
Electrode material :
Initial state :
Electrolyte :
Comments :
Cable : special
Electrode surface area : 0.001 cm²
Characteristic mass : 0.001 g
Equivalent Weight : 0.000 g/eq.
Density : 0.000 g/cm3
Volume (V) : 0.001 cm³
Record EIS quality indicators
Cycle Definition : Charge/Discharge alternance
Ei (V)              0.000
vs.                 Eoc
dE/dt               20.000
dE/dt unit          mV/s
E1 (V)              0.700
vs.                 Ref
Step percent        50
N                   10
E range min (V)     -1.000
E range max (V)     1.000
I Range             Auto
I Range min         Unset
I Range max         Unset
I Range init        Unset
Bandwidth           8
E2 (V)              0.000
vs.                 Ref
nc cycles           1
Reverse Scan        1
Ef (V)              0.000
vs.                 Eoc

mode	ox/red	error	control changes	counter inc.	time/s	control/V	Ewe/V	<I>/mA	cycle number	(Q-Qo)/C	I Range	step time/s	P/W
2	1	0	1	0	0.000000000000000E+000	0.443566	0.443234	0.0280555	1	0.0000000E+000	41	0.000000000000000E+000	1.24351e-05
2	1	0	1	0	1.1632	0.46683	0.466378	0.104663	1	9.14202e-05	41	1.1494	4.88124e-05
2	1	0	1	0	2.3677	0.490919	0.490657	0.10877	1	0.000223928	40	2.3539	5.3369e-05
2	1	0	1	0	3.5421	0.514407	0.513952	0.0948582	1	0.000345224	40	3.5283	4.87526e-05
2	1	0	1	0	4.7166	0.537896	0.537505	0.0802392	1	0.00044926	40	4.7028	4.3129e-05
2	1	0	1	0	5.891	0.561385	0.561218	0.0684225	1	0.000538138	40	5.8772	3.83999e-05
2	1	0	1	0	7.0654	0.584874	0.584581	0.0603362	1	0.000615796	40	7.0516	3.52714e-05
2	1	0	1	0	8.2399	0.608363	0.607988	0.0542621	1	0.00068539	40	8.2261	3.29907e-05
2	1	0	1	0	9.4143	0.631852	0.631487	0.0496617	1	0.000749098	40	9.4005	3.13607e-05
2	1	0	1	0	10.5888	0.655341	0.654988	0.0464356	1	0.000808396	40	10.575	3.04148e-05
2	1	0	1	0	11.7632	0.67883	0.678428	0.0438867	1	0.000864247	40	11.7494	2.9774e-05
2	1	0	1	0	12.9357	0.697721	0.697429	0.0432438	1	0.000917169	41	12.9219	3.01595e-05
2	1	0	1	0	14.1102	0.674232	0.674027	0.0412655	1	0.000966719	41	14.0964	2.78141e-05
2	1	0	1	0	15.2846	0.650743	0.650512	0.0396497	1	0.00101419	41	15.2708	2.57926e-05
2	1	0	1	0	16.459	0.627255	0.626966	0.0381591	1	0.00105986	41	16.4452	2.39244e-05
2	1	0	1	0	17.6335	0.603765	0.603292	0.0366778	1	0.00110381	41	17.6197	2.21274e-05
2	1	0	1	0	18.8079	0.580276	0.580009	0.0347492	1	0.00114579	41	18.7941	2.01549e-05
2	1	0	1	0	19.9824	0.556787	0.55659	0.0315741	1	0.00118491	41	19.9686	1.75738e-05
2	1	0	1	0	21.1568	0.533298	0.532975	0.0252178	1	0.00121869	41	21.143	1.34405e-05
2	1	0	1	0	22.3313	0.50981	0.509423	0.0114562	1	0.00124125	41	22.3175	5.83604e-06
2	0	0	1	0	23.5657	0.485121	0.484468	-0.0192667	1	0.00123871	41	0.6297	-9.33412e-06
2	0	0	1	0	24.7401	0.461632	0.461481	-0.0711446	1	0.00118774	41	1.8041	-3.28318e-05
2	0	0	1	0	25.9446	0.437544	0.437274	-0.136005	1	0.00106245	40	3.0086	-5.94714e-05
2	0	0	1	0	27.119	0.414055	0.413692	-0.17678	1	0.000874493	40	4.183	-7.31323e-05
2	0	0	1	0	28.2934	0.390568	0.390221	-0.178045	1	0.000662141	40	5.3574	-6.94767e-05
2	0	0	1	0	29.4679	0.367077	0.366888	-0.157892	1	0.000463108	40	6.5319	-5.79287e-05
2	0	0	1	0	30.6423	0.343588	0.343237	-0.135047	1	0.000290353	40	7.7063	-4.63532e-05
2	0	0	1	0	31.8168	0.320099	0.319722	-0.116621	1	0.000142052	40	8.8808	-3.72863e-05
2	0	0	1	0	32.9912	0.296611	0.296293	-0.102694	1	1.2997e-05	40	10.0552	-3.04275e-05
2	0	0	1	0	34.1657	0.273122	0.272642	-0.0918471	1	-0.000101472	40	11.2297	-2.50414e-05
2	0	0	1	0	35.3401	0.249633	0.249338	-0.0838646	1	-0.000204841	40	12.4041	-2.09106e-05
2	0	0	1	0	36.5146	0.226144	0.225751	-0.0772819	1	-0.000299642	40	13.5786	-1.74465e-05
2	0	0	1	0	37.689	0.202655	0.202365	-0.072232	1	-0.000387657	40	14.753	-1.46173e-05
2	0	0	1	0	38.8634	0.179168	0.179013	-0.0679613	1	-0.000470231	40	15.9274	-1.2166e-05
2	0	0	1	0	40.0379	0.155677	0.15556	-0.0644905	1	-0.000548331	40	17.1019	-1.00321e-05
2	0	0	1	0	41.2123	0.132188	0.131816	-0.0617402	1	-0.000622714	40	18.2763	-8.13832e-06
2	0	0	1	0	42.3868	0.1087	0.108299	-0.059225	1	-0.000694001	40	19.4508	-6.41402e-06
2	0	0	1	0	43.5612	0.0852107	0.0848657	-0.0571765	1	-0.000762691	40	20.6252	-4.85232e-06
2	0	0	1	0	44.7357	0.0617218	0.0614964	-0.0555225	1	-0.000829173	40	21.7997	-3.41444e-06
2	0	0	1	0	45.9101	0.0382329	0.0380282	-0.053813	1	-0.00089374	40	22.9741	-2.04641e-06
2	0	0	1	0	47.0846	0.014744	0.0144925	-0.0525797	1	-0.000956586	40	24.1486	-7.6201e-07
2	0	0	1	1	48.2093	0.00774732	0.00753043	-0.0509308	1	-0.00101494	40	25.2733	-3.83531e-07
2	0	0	1	1	49.3838	0.031238	0.0311251	-0.0494353	1	-0.00107348	40	26.4478	-1.53868e-06
2	0	0	1	1	50.5582	0.0547251	0.0543266	-0.0484852	1	-0.00113052	40	27.6222	-2.63404e-06
2	0	0	1	1	51.7326	0.078214	0.0781661	-0.0473704	1	-0.00118632	40	28.7966	-3.70276e-06
2	0	0	1	1	52.9071	0.101703	0.101394	-0.0464744	1	-0.001241	40	29.9711	-4.71223e-06
2	0	0	1	1	54.0815	0.125192	0.124966	-0.04561	1	-0.00129467	40	31.1455	-5.69969e-06
2	0	0	1	1	55.286	0.149281	0.149107	-0.0445969	1	-0.00134878	41	32.35	-6.64972e-06
2	0	0	1	1	56.4604	0.172769	0.17253	-0.0439517	1	-0.00140074	41	33.5244	-7.58297e-06
2	0	0	1	1	57.6348	0.196258	0.196135	-0.0433365	1	-0.00145196	41	34.6988	-8.49979e-06
2	0	0	1	1	58.8093	0.219747	0.21947	-0.0427272	1	-0.00150247	41	35.8733	-9.37732e-06
2	0	0	1	1	59.9837	0.243236	0.243089	-0.0420514	1	-0.00155224	41	37.0477	-1.02223e-05
2	0	0	1	1	61.1582	0.266725	0.266607	-0.0411878	1	-0.00160111	41	38.2222	-1.09809e-05
2	0	0	1	1	62.3326	0.290214	0.290245	-0.0397315	1	-0.00164867	41	39.3966	-1.15319e-05
2	0	0	1	1	63.5071	0.313702	0.313421	-0.0367932	1	-0.00169381	41	40.5711	-1.15318e-05
2	0	0	1	1	64.6815	0.337191	0.337067	-0.0302747	1	-0.00173366	41	41.7455	-1.02046e-05
2	0	0	1	1	65.856	0.360681	0.360282	-0.0155841	1	-0.00176167	41	42.92	-5.61468e-06
2	1	0	1	1	67.0904	0.385369	0.385092	0.0171903	1	-0.0017631	41	0.5048	6.61983e-06
2	1	0	1	1	68.2648	0.408857	0.408651	0.0715268	1	-0.00171308	41	1.6792	2.92295e-05
2	1	0	1	1	69.4692	0.432946	0.432844	0.13655	1	-0.00158666	40	2.8836	5.9105e-05
2	1	0	1	1	70.5987	0.455535	0.455265	0.173112	2	-0.00140757	40	4.0131	7.88119e-05
2	1	0	1	1	71.7732	0.479025	0.478807	0.17071	2	-0.00120178	40	5.1876	8.1737e-05
2	1	0	1	1	72.9476	0.502513	0.502203	0.147456	2	-0.00101331	40	6.362	7.40527e-05
2	1	0	1	1	74.122	0.526002	0.525721	0.122883	2	-0.00085376	40	7.5364	6.46022e-05
2	1	0	1	1	75.2965	0.549491	0.549209	0.103123	2	-0.000719979	40	8.7109	5.6636e-05
2	1	0	1	1	76.4709	0.57298	0.572566	0.0886383	2	-0.000605745	40	9.8853	5.07513e-05
2	1	0	1	1	77.6454	0.596469	0.596227	0.0778598	2	-0.000505897	40	11.0598	4.64221e-05
[...]
2	1	0	1	1	90.5623	0.545193	0.544942	0.033982	2	0.000183681	41	23.9767	1.85182e-05
2	1	0	1	1	91.7368	0.521704	0.521203	0.0240718	2	0.000218444	41	25.1512	1.25463e-05
2	1	0	1	1	92.9112	0.498215	0.498056	0.00344447	2	0.000236075	41	26.3256	1.71554e-06
2	0	0	1	1	94.1456	0.473527	0.473217	-0.0392996	2	0.000216705	41	1.0795	-1.85972e-05
2	0	0	1	1	95.3201	0.450038	0.449577	-0.101229	2	0.00013555	41	2.254	-4.55101e-05
2	0	0	1	1	96.5245	0.425949	0.425654	-0.159943	2	-2.45524e-05	40	3.4584	-6.80804e-05
2	0	0	1	1	97.6989	0.40246	0.402083	-0.180454	2	-0.000229138	40	4.6328	-7.25572e-05
2	0	0	1	1	98.8734	0.378972	0.378614	-0.166677	2	-0.000435661	40	5.8073	-6.31064e-05
2	0	0	1	1	100.048	0.355483	0.355044	-0.142832	2	-0.000618524	40	6.9817	-5.07119e-05
2	0	0	1	1	101.222	0.331994	0.331832	-0.121972	2	-0.000774662	40	8.1562	-4.04742e-05
2	0	0	1	1	102.397	0.308505	0.308274	-0.106058	2	-0.000909038	40	9.3306	-3.2695e-05
2	0	0	1	1	103.571	0.285016	0.284806	-0.0942579	2	-0.00102706	40	10.5051	-2.68452e-05
2	0	0	1	1	104.746	0.261527	0.261295	-0.0853341	2	-0.00113282	40	11.6795	-2.22974e-05
2	0	0	1	1	105.92	0.238038	0.237846	-0.0784983	2	-0.00122927	40	12.8539	-1.86705e-05
2	0	0	1	1	107.094	0.214549	0.214223	-0.0730822	2	-0.00131847	40	14.0284	-1.56559e-05
2	0	0	1	1	108.269	0.191061	0.190797	-0.0685079	2	-0.00140189	40	15.2028	-1.30711e-05
2	0	0	1	1	109.443	0.167572	0.167234	-0.0650125	2	-0.00148063	40	16.3773	-1.08723e-05
2	0	0	1	1	110.618	0.144083	0.143783	-0.0621458	2	-0.00155552	40	17.5517	-8.93553e-06
2	0	0	1	1	111.792	0.120594	0.12041	-0.0594473	2	-0.00162721	40	18.7262	-7.15807e-06
2	0	0	1	1	112.967	0.097105	0.0968389	-0.0573004	2	-0.00169619	40	19.9006	-5.54891e-06
2	0	0	1	1	114.141	0.0736161	0.0734625	-0.0557076	2	-0.00176291	40	21.0751	-4.09242e-06
2	0	0	1	1	115.316	0.0501273	0.049906	-0.05418	2	-0.00182767	40	22.2495	-2.7039e-06
2	0	0	1	1	116.49	0.0266384	0.0264984	-0.0527205	2	-0.0018907	40	23.4239	-1.39701e-06
2	0	0	1	1	117.664	0.00314949	0.00295266	-0.0514989	2	-0.00195216	40	24.5984	-1.52059e-07
2	0	0	1	0	118.784	0.0192419	0.0189906	-0.0499411	2	-0.00200845	40	25.7181	-9.48414e-07
2	0	0	1	0	119.959	0.0427308	0.0423199	-0.0485418	2	-0.00206579	40	26.8926	-2.05428e-06
2	0	0	1	0	121.133	0.0662196	0.0661142	-0.047552	2	-0.00212182	40	28.067	-3.14386e-06
2	0	0	1	0	122.308	0.0897085	0.0894296	-0.0466531	2	-0.00217673	40	29.2415	-4.17217e-06
2	0	0	1	0	123.482	0.113197	0.112893	-0.0458689	2	-0.00223061	40	30.4159	-5.1783e-06
2	0	0	1	0	124.686	0.137286	0.137116	-0.0447547	2	-0.00228491	41	31.6203	-6.13658e-06
2	0	0	1	0	125.861	0.160775	0.16043	-0.0441046	2	-0.00233706	41	32.7948	-7.07573e-06
2	0	0	1	0	127.035	0.184264	0.184168	-0.0434926	2	-0.00238845	41	33.9692	-8.00996e-06
2	0	0	1	0	128.21	0.207753	0.207535	-0.0429077	2	-0.00243916	41	35.1437	-8.90485e-06
2	0	0	1	0	129.384	0.231242	0.23104	-0.0422861	2	-0.00248916	41	36.3181	-9.76977e-06
2	0	0	1	0	130.559	0.25473	0.254543	-0.0415167	2	-0.00253838	41	37.4926	-1.05678e-05
2	0	0	1	0	131.733	0.278219	0.277911	-0.0404861	2	-0.00258657	41	38.667	-1.12515e-05
2	0	0	1	0	132.908	0.30171	0.301895	-0.0384892	2	-0.00263305	41	39.8415	-1.16197e-05
2	0	0	1	0	134.082	0.325197	0.324702	-0.0341645	2	-0.00267602	41	41.0159	-1.10933e-05
2	0	0	1	0	135.256	0.348686	0.348153	-0.0244144	2	-0.00271115	41	42.1903	-8.49993e-06
2	0	0	1	0	136.461	0.372775	0.372476	-0.00272471	2	-0.00272886	42	43.3948	-1.01489e-06
2	1	0	1	0	137.665	0.396863	0.396522	0.0414445	2	-0.00270777	41	1.1045	1.64337e-05
2	1	0	1	0	138.84	0.420352	0.420265	0.104276	2	-0.00262329	41	2.2789	4.38235e-05
2	1	0	1	0	139.883	0.441217	0.440863	0.154917	2	-0.00248621	40	3.322	6.82971e-05

File: 240322-CVEIS-PostActivation-5mM_Fe2Fe3-1M_H2SO4-0000RPM-Ag_AgCl_BLF8-Au_RDE_02_PEIS_C15.mpt
EC-Lab ASCII FILE
Nb header lines : 66

Potentio Electrochemical Impedance Spectroscopy

Run on channel : 15 (SN 19485)
User :
Electrode connection : standard
Potential control : Ewe
Ewe ctrl range : min = -1.00 V, max = 1.00 V
Ewe,I filtering : <None>
Safety Limits :
	Do not start on E overload
Channel : Floating
Acquisition started on : 03/22/2024 10:39:57.841
Loaded Setting File :  C:\Data\mathias\GoldElectrode\240320-CVEIS_PostActivation-Fe2Fe3_5mM-HCl1M-0000RPM-Ag_AgCl_BLF8-Au_RDE.mps
Saved on :
	File : 240322-CVEIS-PostActivation-5mM_Fe2Fe3-1M_H2SO4-0000RPM-Ag_AgCl_BLF8-Au_RDE_02_PEIS_C15.mpr
	Directory : C:\Data\mathias\GoldElectrode\
	Host : 192.168.0.1
Device : VMP-300 (SN 0826)
Address : USB
EC-Lab for windows v11.52 (software)
Internet server v11.52 (firmware)
Command interpretor v11.52 (firmware)
Electrode material :
Initial state :
Electrolyte :
Comments :
Cable : special
Electrode surface area : 0.001 cm²
Characteristic mass : 0.001 g
Equivalent Weight : 0.000 g/eq.
Density : 0.000 g/cm3
Volume (V) : 0.001 cm³
Record EIS quality indicators
Cycle Definition : Charge/Discharge alternance
Mode                Single sine
E (V)               0.0000
vs.                 Eoc
tE (h:m:s)          0:00:0.0000
record              0
dI                  0.000
unit dI             mA
dt (s)              0.000
fi                  400.000
unit fi             kHz
ff                  100.000
unit ff             mHz
Nd                  10
Points              per decade
spacing             Logarithmic
Va (mV)             5.0
pw                  0.10
Na                  3
corr                0
E range min (V)     -1.000
E range max (V)     1.000
I Range             Auto
Bandwidth           8
nc cycles           2
goto Ns'            0
nr cycles           0
inc. cycle          1

freq/Hz	Re(Z)/Ohm	-Im(Z)/Ohm	|Z|/Ohm	Phase(Z)/deg	time/s	<Ewe>/V	<I>/mA	Cs/µF	Cp/µF	cycle number	I Range	|Ewe|/V	|I|/A	Ns	(Q-Qo)/mA.h	THD Ewe/%	NSD Ewe/%	NSR Ewe/%	|Ewe h2|/V	|Ewe h3|/V	|Ewe h4|/V	|Ewe h5|/V	|Ewe h6|/V	|Ewe h7|/V	THD I/%	NSD I/%	NSR I/%	|I h2|/A	|I h3|/A	|I h4|/A	|I h5|/A	|I h6|/A	|I h7|/A	Re(Y)/Ohm-1	Im(Y)/Ohm-1	|Y|/Ohm-1	Phase(Y)/deg	Re(C)/nF	Im(C)/nF	|C|/nF	Phase(C)/deg	Re(M)	Im(M)	|M|	Phase(M)/deg	Re(Permittivity)	Im(Permittivity)	|Permittivity|	Phase(Permittivity)/deg	Re(Resistivity)/Ohm.cm	Im(Resistivity)/Ohm.cm	|Resistivity|/Ohm.cm	Phase(Resistivity)/deg	Re(Conductivity)/mS/cm	Im(Conductivity)/mS/cm	|Conductivity|/mS/cm	Phase(Conductivity)/deg	Tan(Delta)	Loss Angle(Delta)/deg	dq/mA.h
399996	3.23296	0.233521	3.24138	-4.13138	142.804	0.441048	-0.0415807	1.70388	0.00884361	1	37	0.00455848	0.00140634	0	1.7478e-05	-1	-1	-1	0	0	0	0	0	0	-1	-1	-1	0	0	0	0	0	0	0.307709	0.0222262	0.30851	4.13138	8.84361	122.434	122.753	-85.8686	0.0000000E+000	0.0000000E+000	0.0000000E+000	85.8686	0.0000000E+000	0.0000000E+000	0.0000000E+000	-85.8686	0.0000000E+000	0.0000000E+000	0.0000000E+000	-4.13138	0.0000000E+000	0.0000000E+000	0.0000000E+000	4.13138	13.8444	85.8686	1.7478e-05
20032.3	2.80872	0.546937	2.86148	-11.0192	157.725	0.441085	-0.0522449	14.5262	0.530696	1	37	0.00511248	0.00178666	0	-0.000188044	1.25922	0.645304	25.3123	2.10773e-05	2.51456e-05	2.37707e-05	2.46573e-05	3.17631e-05	2.09453e-05	0.475295	0.252043	9.88326	4.87767e-06	2.80888e-06	3.46121e-06	2.36785e-06	1.81741e-06	3.12097e-06	0.343027	0.0667969	0.34947	11.0192	530.696	2725.32	2776.51	-78.9808	0.0000000E+000	0.0000000E+000	0.0000000E+000	78.9808	0.0000000E+000	0.0000000E+000	0.0000000E+000	-78.9808	0.0000000E+000	0.0000000E+000	0.0000000E+000	-11.0192	0.0000000E+000	0.0000000E+000	0.0000000E+000	11.0192	5.13536	78.9808	-1.41509e-05
1002.75	6.58255	5.40766	8.51896	-39.4036	172.93	0.44092	-0.00524723	29.3506	11.8267	1	38	0.00474994	0.000557572	0	-0.000299835	1.17427	0.671717	27.2248	2.56145e-05	2.484e-05	2.70218e-05	1.85484e-05	1.47577e-05	1.76767e-05	0.42334	0.199567	5.33717	1.37951e-06	1.22085e-06	5.16982e-07	1.13665e-06	1.93389e-07	4.57029e-07	0.0907028	0.0745136	0.117385	39.4036	11826.7	14396.2	18631.2	-50.5964	0.0000000E+000	0.0000000E+000	0.0000000E+000	50.5964	0.0000000E+000	0.0000000E+000	0.0000000E+000	-50.5964	0.0000000E+000	0.0000000E+000	0.0000000E+000	-39.4036	0.0000000E+000	0.0000000E+000	0.0000000E+000	39.4036	1.21726	50.5964	-1.71093e-06
50.2089	20.4029	9.49598	22.5045	-24.9583	187.473	0.440963	-0.000169443	333.811	59.4347	1	39	0.00462795	0.000205646	0	-0.000311705	1.35227	0.824908	28.687	3.38777e-05	1.81402e-05	2.06889e-05	2.09639e-05	2.4984e-05	1.83969e-05	0.515121	0.167665	6.04887	8.86556e-07	2.47844e-07	2.34662e-07	1.77364e-07	2.79032e-07	2.38465e-07	0.0402859	0.01875	0.0444355	24.9583	59434.7	127701	140854	-65.0417	0.0000000E+000	0.0000000E+000	0.0000000E+000	65.0417	0.0000000E+000	0.0000000E+000	0.0000000E+000	-65.0417	0.0000000E+000	0.0000000E+000	0.0000000E+000	-24.9583	0.0000000E+000	0.0000000E+000	0.0000000E+000	24.9583	2.14859	65.0417	-1.32142e-07
2.51368	49.2198	34.0424	59.8454	-34.6693	207.065	0.440958	-0.000135163	1859.9	601.824	1	40	0.0046017	7.68932e-05	0	-0.000311557	0.761698	0.351278	14.9354	9.63911e-06	7.59944e-06	1.14816e-05	1.46678e-05	1.92759e-05	1.04184e-05	0.640159	0.0891317	1.13143	4.78942e-07	5.55684e-08	3.24795e-08	8.95437e-08	1.32809e-08	9.42223e-09	0.0137429	0.00950514	0.0167097	34.6693	601824	870139	1.05799e+06	-55.3307	0.0000000E+000	0.0000000E+000	0.0000000E+000	55.3307	0.0000000E+000	0.0000000E+000	0.0000000E+000	-55.3307	0.0000000E+000	0.0000000E+000	0.0000000E+000	-34.6693	0.0000000E+000	0.0000000E+000	0.0000000E+000	34.6693	1.44584	55.3307	6.39961e-07
0.125939	170.175	149.056	226.224	-41.215	443.32	0.440971	-0.000124911	8478.37	3680.73	1	41	0.00459254	2.03009e-05	0	-0.000325997	0.3056	0.141509	4.21357	4.91582e-06	6.80452e-06	6.6001e-06	5.25791e-06	3.9059e-06	5.58831e-06	0.858001	0.27309	1.05606	1.67943e-07	1.57285e-08	1.48735e-08	3.35408e-08	1.00735e-08	9.36577e-09	0.00332521	0.00291255	0.0044204	41.215	3.68073e+06	4.20224e+06	5.58628e+06	-48.785	0.0000000E+000	0.0000000E+000	0.0000000E+000	48.785	0.0000000E+000	0.0000000E+000	0.0000000E+000	-48.785	0.0000000E+000	0.0000000E+000	0.0000000E+000	-41.215	0.0000000E+000	0.0000000E+000	0.0000000E+000	41.215	1.14169	48.785	4.04472e-07
31751	2.76717	0.420109	2.79888	-8.63265	520.883	0.441059	-0.0481504	11.9317	0.268816	2	37	0.00517951	0.00185056	0	-0.000571454	1.2044	0.601104	25.8116	3.02891e-05	2.7146e-05	2.62404e-05	1.74107e-05	2.00741e-05	2.48167e-05	0.604288	0.258045	9.52783	2.93831e-06	4.601e-06	5.90117e-06	3.47754e-06	4.63088e-06	3.02455e-06	0.353238	0.0536281	0.357285	8.63265	268.815	1770.64	1790.93	-81.3674	0.0000000E+000	0.0000000E+000	0.0000000E+000	81.3674	0.0000000E+000	0.0000000E+000	0.0000000E+000	-81.3674	0.0000000E+000	0.0000000E+000	0.0000000E+000	-8.63265	0.0000000E+000	0.0000000E+000	0.0000000E+000	8.63265	6.58681	81.3674	-1.52217e-05
[...]
2519.19	3.93465	3.89093	5.53361	-44.6799	899.35	0.44096	-0.00369622	16.237	8.02779	3	38	0.00522396	0.000944041	0	-0.000981533	1.35089	0.589112	24.481	2.05064e-05	2.53229e-05	4.037e-05	1.51738e-05	2.86028e-05	2.19659e-05	0.265122	0.0968666	3.15547	1.81631e-06	8.9386e-07	3.79003e-07	7.43326e-07	9.37408e-07	5.69081e-07	0.128496	0.127068	0.180714	44.6799	8027.79	8117.98	11417	-45.3201	0.0000000E+000	0.0000000E+000	0.0000000E+000	45.3201	0.0000000E+000	0.0000000E+000	0.0000000E+000	-45.3201	0.0000000E+000	0.0000000E+000	0.0000000E+000	-44.6799	0.0000000E+000	0.0000000E+000	0.0000000E+000	44.6799	1.01124	45.3201	-9.59945e-07
126.171	21.7701	10.4374	24.1428	-25.6147	913.978	0.440987	-4.40104e-05	120.856	22.5878	3	39	0.00463592	0.000192021	0	-0.000987025	1.17068	0.635275	28.1627	1.33984e-05	1.87222e-05	2.30202e-05	1.87073e-05	2.95457e-05	2.15467e-05	0.446477	0.158072	6.32334	6.49847e-07	2.39561e-07	1.85674e-07	3.0412e-07	1.78567e-07	1.5744e-07	0.0373495	0.0179066	0.0414202	25.6147	22587.8	47113.4	52248.3	-64.3853	0.0000000E+000	0.0000000E+000	0.0000000E+000	64.3853	0.0000000E+000	0.0000000E+000	0.0000000E+000	-64.3853	0.0000000E+000	0.0000000E+000	0.0000000E+000	-25.6147	0.0000000E+000	0.0000000E+000	0.0000000E+000	25.6147	2.08579	64.3853	1.74327e-07
6.31569	43.725	22.6042	49.2222	-27.3373	928.415	0.440966	-6.27446e-05	1114.83	235.108	3	39	0.00460374	9.35297e-05	0	-0.000985867	0.864874	0.399535	19.5476	1.49004e-05	1.78681e-05	1.76741e-05	1.38503e-05	1.69757e-05	1.10072e-05	0.656388	0.258078	9.38898	4.21176e-07	2.12373e-07	1.81193e-07	1.45471e-07	2.13122e-07	1.63296e-07	0.0180471	0.00932969	0.020316	27.3373	235108	454786	511963	-62.6627	0.0000000E+000	0.0000000E+000	0.0000000E+000	62.6627	0.0000000E+000	0.0000000E+000	0.0000000E+000	-62.6627	0.0000000E+000	0.0000000E+000	0.0000000E+000	-27.3373	0.0000000E+000	0.0000000E+000	0.0000000E+000	27.3373	1.93437	62.6627	-2.27426e-07
0.316193	119.474	94.8342	152.537	-38.4412	1022.96	0.440958	-4.44593e-05	5307.66	2051.55	3	40	0.00459823	3.0145e-05	0	-0.000982973	0.267218	0.221117	5.2435	7.62259e-06	5.83197e-06	3.28059e-06	2.84485e-06	3.0225e-06	4.23005e-06	0.837149	0.265314	1.27881	2.42924e-07	3.66271e-08	1.92588e-08	4.74742e-08	1.48093e-08	1.43408e-08	0.00513479	0.0040758	0.00655577	38.4412	2.05154e+06	2.58458e+06	3.29983e+06	-51.5588	0.0000000E+000	0.0000000E+000	0.0000000E+000	51.5588	0.0000000E+000	0.0000000E+000	0.0000000E+000	-51.5588	0.0000000E+000	0.0000000E+000	0.0000000E+000	-38.4412	0.0000000E+000	0.0000000E+000	0.0000000E+000	38.4412	1.25982	51.5587	1.75154e-06
0.0999518	195.564	167.299	257.36	-40.546	1235.56	0.44096	-1.56005e-05	9517.79	4022	3	41	0.00459304	1.78468e-05	0	-0.000982361	0.323859	0.185405	4.83049	5.60864e-06	8.4382e-06	5.67683e-06	4.75375e-06	4.36311e-06	3.55336e-06	0.830021	0.0956005	0.971667	1.44131e-07	5.86344e-09	9.12863e-09	2.9054e-08	9.07472e-09	6.2023e-09	0.00295261	0.00252588	0.00388561	40.546	4.022e+06	4.7015e+06	6.18713e+06	-49.454	0.0000000E+000	0.0000000E+000	0.0000000E+000	49.454	0.0000000E+000	0.0000000E+000	0.0000000E+000	-49.454	0.0000000E+000	0.0000000E+000	0.0000000E+000	-40.546	0.0000000E+000	0.0000000E+000	0.0000000E+000	40.546	1.16895	49.454	5.77853e-06