Folder: Thesis/Python/Data/GoldElectrode/240322/Gold (part 2)

File: 240322-CVEIS-Activation-5mM_Fe2Fe3-1M_H2SO4-0000RPM-Ag_AgCl_BLF8-Au_RDE_04_PEIS_C15.mpt
EC-Lab ASCII FILE
Nb header lines : 66

Potentio Electrochemical Impedance Spectroscopy

Run on channel : 15 (SN 19485)
User :
Electrode connection : standard
Potential control : Ewe
Ewe ctrl range : min = -2.50 V, max = 2.50 V
Ewe,I filtering : 50 kHz
Safety Limits :
	Do not start on E overload
Channel : Floating
Acquisition started on : 03/22/2024 10:02:07.151
Loaded Setting File :  C:\Data\mathias\GoldElectrode\240321-CVEIS-Activation-5mM_Fe2Fe3-1M_H2SO4-0000RPM-Ag_AgCl_BLF8-Au_RDE.mps
Saved on :
	File : 240322-CVEIS-Activation-5mM_Fe2Fe3-1M_H2SO4-0000RPM-Ag_AgCl_BLF8-Au_RDE_04_PEIS_C15.mpr
	Directory : C:\Data\mathias\GoldElectrode\
	Host : 192.168.0.1
Device : VMP-300 (SN 0826)
Address : USB
EC-Lab for windows v11.52 (software)
Internet server v11.52 (firmware)
Command interpretor v11.52 (firmware)
Electrode material :
Initial state :
Electrolyte :
Comments :
Cable : special
Electrode surface area : 0.001 cm²
Characteristic mass : 0.001 g
Equivalent Weight : 0.000 g/eq.
Density : 0.000 g/cm3
Volume (V) : 0.001 cm³
Record EIS quality indicators
Cycle Definition : Charge/Discharge alternance
Mode                Single sine
E (V)               0.0000
vs.                 Eoc
tE (h:m:s)          0:00:0.0000
record              0
dI                  0.000
unit dI             mA
dt (s)              0.000
fi                  100.000
unit fi             kHz
ff                  100.000
unit ff             Hz
Nd                  10
Points              per decade
spacing             Logarithmic
Va (mV)             5.0
pw                  0.10
Na                  2
corr                0
E range min (V)     -2.500
E range max (V)     2.500
I Range             Auto
Bandwidth           8
nc cycles           0
goto Ns'            0
nr cycles           0
inc. cycle          0

freq/Hz	Re(Z)/Ohm	-Im(Z)/Ohm	|Z|/Ohm	Phase(Z)/deg	time/s	<Ewe>/V	<I>/mA	Cs/µF	Cp/µF	cycle number	I Range	|Ewe|/V	|I|/A	Ns	(Q-Qo)/mA.h	THD Ewe/%	NSD Ewe/%	NSR Ewe/%	|Ewe h2|/V	|Ewe h3|/V	|Ewe h4|/V	|Ewe h5|/V	|Ewe h6|/V	|Ewe h7|/V	THD I/%	NSD I/%	NSR I/%	|I h2|/A	|I h3|/A	|I h4|/A	|I h5|/A	|I h6|/A	|I h7|/A	Re(Y)/Ohm-1	Im(Y)/Ohm-1	|Y|/Ohm-1	Phase(Y)/deg	Re(C)/nF	Im(C)/nF	|C|/nF	Phase(C)/deg	Re(M)	Im(M)	|M|	Phase(M)/deg	Re(Permittivity)	Im(Permittivity)	|Permittivity|	Phase(Permittivity)/deg	Re(Resistivity)/Ohm.cm	Im(Resistivity)/Ohm.cm	|Resistivity|/Ohm.cm	Phase(Resistivity)/deg	Re(Conductivity)/mS/cm	Im(Conductivity)/mS/cm	|Conductivity|/mS/cm	Phase(Conductivity)/deg	Tan(Delta)	Loss Angle(Delta)/deg	dq/mA.h
100004	2.75297	0.159573	2.75759	-3.31739	389.5	0.441884	-0.0467546	9.97341	0.0333969	1	37	0.00483294	0.0017526	0	2.14215e-05	1.30619	0.523316	28.0532	1.89056e-05	1.27646e-05	2.90589e-05	2.90765e-05	3.46615e-05	1.94712e-05	0.707467	0.280038	9.81887	4.61865e-06	6.05228e-06	7.02117e-06	3.38944e-06	4.41217e-06	2.42954e-06	0.362028	0.0209847	0.362636	3.31739	33.3969	576.165	577.132	-86.6826	0.0000000E+000	0.0000000E+000	0.0000000E+000	86.6826	0.0000000E+000	0.0000000E+000	0.0000000E+000	-86.6826	0.0000000E+000	0.0000000E+000	0.0000000E+000	-3.31739	0.0000000E+000	0.0000000E+000	0.0000000E+000	3.31739	17.252	86.6826	2.14215e-05
63093.8	2.75504	0.243403	2.76577	-5.04888	391.13	0.441892	-0.0641933	10.3635	0.0802653	1	37	0.00518388	0.0018743	0	-7.82248e-06	2.0454	0.638583	25.1707	9.56789e-05	1.14708e-05	1.55178e-05	2.16268e-05	2.5094e-05	2.36147e-05	0.673446	0.31246	9.27882	6.72221e-06	6.34317e-06	1.9788e-06	4.10015e-06	5.21407e-06	3.82324e-06	0.36016	0.0318196	0.361563	5.04888	80.2653	908.508	912.047	-84.9511	0.0000000E+000	0.0000000E+000	0.0000000E+000	84.9511	0.0000000E+000	0.0000000E+000	0.0000000E+000	-84.9511	0.0000000E+000	0.0000000E+000	0.0000000E+000	-5.04888	0.0000000E+000	0.0000000E+000	0.0000000E+000	5.04888	11.3188	84.9511	-1.57408e-05
39814.1	2.7734	0.394151	2.80126	-8.08862	392.76	0.441905	-0.0686228	10.142	0.200788	1	37	0.00516332	0.00184321	0	-3.27452e-05	1.27532	1.00227	25.5737	3.58697e-05	2.3036e-05	1.09684e-05	1.46915e-05	1.38593e-05	2.92741e-05	0.523602	0.361704	9.507	3.0104e-06	4.79099e-06	2.70369e-06	2.63455e-06	5.72674e-06	2.07979e-06	0.35343	0.0502289	0.356982	8.08862	200.788	1412.82	1427.02	-81.9114	0.0000000E+000	0.0000000E+000	0.0000000E+000	81.9114	0.0000000E+000	0.0000000E+000	0.0000000E+000	-81.9114	0.0000000E+000	0.0000000E+000	0.0000000E+000	-8.08862	0.0000000E+000	0.0000000E+000	0.0000000E+000	8.08862	7.03639	81.9114	-1.26506e-05
25116.9	2.81427	0.555505	2.86858	-11.166	394.39	0.441894	-0.0661103	11.4069	0.427769	1	37	0.00517829	0.00180518	0	-6.57583e-05	1.07375	1.12243	25.7368	3.17794e-05	1.32346e-05	1.39178e-05	1.48867e-05	2.53471e-05	2.22828e-05	0.768692	0.471863	9.6565	5.68761e-06	5.96117e-06	4.67378e-06	4.43471e-06	6.22002e-06	6.11469e-06	0.342006	0.067508	0.348605	11.166	427.769	2167.14	2208.96	-78.834	0.0000000E+000	0.0000000E+000	0.0000000E+000	78.834	0.0000000E+000	0.0000000E+000	0.0000000E+000	-78.834	0.0000000E+000	0.0000000E+000	0.0000000E+000	-11.166	0.0000000E+000	0.0000000E+000	0.0000000E+000	11.166	5.06615	78.834	-1.57404e-05
15847.7	2.8902	0.823809	3.00531	-15.9094	396.02	0.441881	-0.0658498	12.1907	0.916012	1	37	0.00507027	0.0016871	0	-9.60648e-05	1.52774	0.43659	26.4596	8.04339e-06	6.0523e-06	5.21348e-05	1.30545e-05	3.0634e-05	4.39356e-05	0.582895	0.182739	10.4327	4.4789e-06	3.33438e-06	4.9696e-06	3.30827e-06	3.27029e-06	1.71176e-06	0.319999	0.0912109	0.332744	15.9094	916.012	3213.68	3341.68	-74.0906	0.0000000E+000	0.0000000E+000	0.0000000E+000	74.0906	0.0000000E+000	0.0000000E+000	0.0000000E+000	-74.0906	0.0000000E+000	0.0000000E+000	0.0000000E+000	-15.9094	0.0000000E+000	0.0000000E+000	0.0000000E+000	15.9094	3.50834	74.0906	-1.45529e-05
10002.2	3.02607	1.19847	3.25476	-21.606	397.651	0.441878	-0.0674503	13.2768	1.80018	1	37	0.00512988	0.00157612	0	-0.000127717	1.14319	0.71065	25.8575	1.8692e-05	1.9688e-05	1.98415e-05	3.07278e-05	2.81954e-05	1.24419e-05	0.562312	0.385852	11.3472	3.10856e-06	3.56321e-06	1.34755e-06	3.93065e-06	3.21972e-06	4.55698e-06	0.285655	0.113134	0.307243	21.606	1800.18	4545.33	4888.83	-68.394	0.0000000E+000	0.0000000E+000	0.0000000E+000	68.394	0.0000000E+000	0.0000000E+000	0.0000000E+000	-68.394	0.0000000E+000	0.0000000E+000	0.0000000E+000	-21.606	0.0000000E+000	0.0000000E+000	0.0000000E+000	21.606	2.52493	68.394	-1.58402e-05
6307.74	3.20718	1.78087	3.66845	-29.0424	399.404	0.441734	-0.0606944	14.1682	3.33899	1	37	0.0050365	0.00137293	0	-0.00016121	1.21771	0.926142	26.2692	1.81182e-05	2.77689e-05	2.01312e-05	3.19358e-05	2.20743e-05	2.42945e-05	0.678226	0.302471	13.0218	3.53644e-06	3.70458e-06	2.78277e-06	4.81973e-06	4.50328e-06	1.09356e-06	0.238319	0.132333	0.272595	29.0424	3338.99	6013.19	6878.03	-60.9576	0.0000000E+000	0.0000000E+000	0.0000000E+000	60.9576	0.0000000E+000	0.0000000E+000	0.0000000E+000	-60.9576	0.0000000E+000	0.0000000E+000	0.0000000E+000	-29.0424	0.0000000E+000	0.0000000E+000	0.0000000E+000	29.0424	1.8009	60.9576	-1.76848e-05
[...]
631.01	10.0581	7.89047	12.7838	-38.1138	407.324	0.441771	-0.0035808	31.9655	12.1778	1	38	0.00465902	0.000364448	0	-0.000170778	1.66254	0.711221	27.5684	1.87595e-05	4.86586e-05	2.84527e-05	3.1669e-05	9.59409e-06	1.75288e-05	0.764216	0.175605	8.35207	1.41512e-06	1.80442e-06	5.10528e-07	1.08815e-06	4.40892e-07	7.12067e-07	0.0615457	0.0482819	0.0782241	38.1138	12177.8	15523.2	19729.9	-51.8862	0.0000000E+000	0.0000000E+000	0.0000000E+000	51.8862	0.0000000E+000	0.0000000E+000	0.0000000E+000	-51.8862	0.0000000E+000	0.0000000E+000	0.0000000E+000	-38.1138	0.0000000E+000	0.0000000E+000	0.0000000E+000	38.1138	1.27472	51.8862	-3.16094e-07
398.089	13.029	8.50628	15.56	-33.1394	408.813	0.441757	-0.00212477	47.0002	14.0463	1	38	0.00461694	0.000296719	0	-0.00017123	1.18731	1.14868	28.0388	7.54918e-06	2.78578e-05	1.81564e-05	2.88036e-05	2.51067e-05	1.18241e-05	0.763637	0.24903	9.81132	1.34148e-06	8.78447e-07	8.95889e-07	6.53659e-07	7.08783e-07	8.49343e-07	0.0538139	0.0351336	0.0642675	33.1394	14046.3	21514.7	25694	-56.8606	0.0000000E+000	0.0000000E+000	0.0000000E+000	56.8606	0.0000000E+000	0.0000000E+000	0.0000000E+000	-56.8606	0.0000000E+000	0.0000000E+000	0.0000000E+000	-33.1394	0.0000000E+000	0.0000000E+000	0.0000000E+000	33.1394	1.53169	56.8606	-2.78908e-07
251.206	15.9858	8.67046	18.1857	-28.4748	410.298	0.441778	-0.00364039	73.0715	16.61	1	38	0.00461431	0.000253732	0	-0.000172298	1.34998	0.70037	28.2899	1.91678e-05	1.1425e-05	2.29504e-05	1.66846e-05	2.37357e-05	4.30313e-05	0.782129	0.276414	11.8184	1.47423e-06	6.55975e-07	7.11921e-07	4.56577e-07	4.70287e-07	3.60334e-07	0.0483361	0.0262168	0.0549881	28.4748	16610	30624	34838.5	-61.5252	0.0000000E+000	0.0000000E+000	0.0000000E+000	61.5252	0.0000000E+000	0.0000000E+000	0.0000000E+000	-61.5252	0.0000000E+000	0.0000000E+000	0.0000000E+000	-28.4748	0.0000000E+000	0.0000000E+000	0.0000000E+000	28.4748	1.8437	61.5252	-4.24453e-07
158.529	18.7325	8.80407	20.6983	-25.173	411.791	0.44179	-0.00293471	114.032	20.6313	1	38	0.00461932	0.000223175	0	-0.000174056	1.41901	0.846284	27.9066	2.1036e-05	9.61313e-06	2.8325e-05	3.62265e-05	2.1419e-05	2.94878e-05	0.999328	0.185405	13.3473	1.83489e-06	8.33052e-07	4.90872e-07	4.11762e-07	4.50325e-07	4.82303e-07	0.0437248	0.0205502	0.0483132	25.173	20631.3	43897.5	48504	-64.827	0.0000000E+000	0.0000000E+000	0.0000000E+000	64.827	0.0000000E+000	0.0000000E+000	0.0000000E+000	-64.827	0.0000000E+000	0.0000000E+000	0.0000000E+000	-25.173	0.0000000E+000	0.0000000E+000	0.0000000E+000	25.173	2.12771	64.827	-8.5446e-07
99.9682	21.2258	9.11336	23.0996	-23.2364	413.516	0.441789	0.000801034	174.695	27.1913	1	39	0.00462528	0.000200232	0	-0.000174672	1.74713	0.607923	28.1796	2.53806e-05	2.76178e-05	3.1631e-05	2.73715e-05	3.25213e-05	4.69878e-05	0.583934	0.15765	6.08834	9.745e-07	2.83541e-07	2.93305e-07	2.27901e-07	3.19999e-07	2.85916e-07	0.0397793	0.0170793	0.0432909	23.2364	27191.3	63330.9	68921.5	-66.7636	0.0000000E+000	0.0000000E+000	0.0000000E+000	66.7636	0.0000000E+000	0.0000000E+000	0.0000000E+000	-66.7636	0.0000000E+000	0.0000000E+000	0.0000000E+000	-23.2364	0.0000000E+000	0.0000000E+000	0.0000000E+000	23.2364	2.32909	66.7636	-1.83374e-07

File: 240322-CVEIS-Activation-5mM_Fe2Fe3-1M_H2SO4-0000RPM-Ag_AgCl_BLF8-Au_RDE_06_PEIS_C15.mpt
EC-Lab ASCII FILE
Nb header lines : 66

Potentio Electrochemical Impedance Spectroscopy

Run on channel : 15 (SN 19485)
User :
Electrode connection : standard
Potential control : Ewe
Ewe ctrl range : min = -2.50 V, max = 2.50 V
Ewe,I filtering : 50 kHz
Safety Limits :
	Do not start on E overload
Channel : Floating
Acquisition started on : 03/22/2024 10:02:07.151
Loaded Setting File :  C:\Data\mathias\GoldElectrode\240321-CVEIS-Activation-5mM_Fe2Fe3-1M_H2SO4-0000RPM-Ag_AgCl_BLF8-Au_RDE.mps
Saved on :
	File : 240322-CVEIS-Activation-5mM_Fe2Fe3-1M_H2SO4-0000RPM-Ag_AgCl_BLF8-Au_RDE_06_PEIS_C15.mpr
	Directory : C:\Data\mathias\GoldElectrode\
	Host : 192.168.0.1
Device : VMP-300 (SN 0826)
Address : USB
EC-Lab for windows v11.52 (software)
Internet server v11.52 (firmware)
Command interpretor v11.52 (firmware)
Electrode material :
Initial state :
Electrolyte :
Comments :
Cable : special
Electrode surface area : 0.001 cm²
Characteristic mass : 0.001 g
Equivalent Weight : 0.000 g/eq.
Density : 0.000 g/cm3
Volume (V) : 0.001 cm³
Record EIS quality indicators
Cycle Definition : Charge/Discharge alternance
Mode                Single sine
E (V)               0.0000
vs.                 Eoc
tE (h:m:s)          0:00:0.0000
record              0
dI                  0.000
unit dI             mA
dt (s)              0.000
fi                  100.000
unit fi             kHz
ff                  100.000
unit ff             Hz
Nd                  10
Points              per decade
spacing             Logarithmic
Va (mV)             5.0
pw                  0.10
Na                  2
corr                0
E range min (V)     -2.500
E range max (V)     2.500
I Range             Auto
Bandwidth           8
nc cycles           0
goto Ns'            0
nr cycles           0
inc. cycle          0

freq/Hz	Re(Z)/Ohm	-Im(Z)/Ohm	|Z|/Ohm	Phase(Z)/deg	time/s	<Ewe>/V	<I>/mA	Cs/µF	Cp/µF	cycle number	I Range	|Ewe|/V	|I|/A	Ns	(Q-Qo)/mA.h	THD Ewe/%	NSD Ewe/%	NSR Ewe/%	|Ewe h2|/V	|Ewe h3|/V	|Ewe h4|/V	|Ewe h5|/V	|Ewe h6|/V	|Ewe h7|/V	THD I/%	NSD I/%	NSR I/%	|I h2|/A	|I h3|/A	|I h4|/A	|I h5|/A	|I h6|/A	|I h7|/A	Re(Y)/Ohm-1	Im(Y)/Ohm-1	|Y|/Ohm-1	Phase(Y)/deg	Re(C)/nF	Im(C)/nF	|C|/nF	Phase(C)/deg	Re(M)	Im(M)	|M|	Phase(M)/deg	Re(Permittivity)	Im(Permittivity)	|Permittivity|	Phase(Permittivity)/deg	Re(Resistivity)/Ohm.cm	Im(Resistivity)/Ohm.cm	|Resistivity|/Ohm.cm	Phase(Resistivity)/deg	Re(Conductivity)/mS/cm	Im(Conductivity)/mS/cm	|Conductivity|/mS/cm	Phase(Conductivity)/deg	Tan(Delta)	Loss Angle(Delta)/deg	dq/mA.h
100004	2.73344	0.139083	2.73698	-2.91282	776.338	0.441868	-0.0542549	11.4427	0.0295485	1	37	0.00485856	0.00177515	0	2.33077e-05	1.24832	0.722755	26.9375	3.40601e-05	2.04114e-05	1.83846e-05	2.34918e-05	2.62232e-05	1.33737e-05	0.486094	0.34701	9.85672	4.78229e-06	3.26057e-06	3.33002e-06	3.25658e-06	1.52487e-06	3.0642e-06	0.364894	0.0185666	0.365366	2.91282	29.5485	580.725	581.477	-87.0872	0.0000000E+000	0.0000000E+000	0.0000000E+000	87.0872	0.0000000E+000	0.0000000E+000	0.0000000E+000	-87.0872	0.0000000E+000	0.0000000E+000	0.0000000E+000	-2.91282	0.0000000E+000	0.0000000E+000	0.0000000E+000	2.91282	19.6533	87.0872	2.33077e-05
63093.8	2.73388	0.210975	2.74201	-4.4128	777.968	0.441868	-0.0720287	11.9564	0.0707827	1	37	0.0051867	0.00189157	0	-6.33148e-06	1.48609	0.608003	25.5358	3.56619e-05	2.20219e-05	2.11228e-05	2.26997e-05	4.17912e-05	3.6118e-05	0.451458	0.270907	9.05904	4.42576e-06	2.51178e-06	4.34674e-06	2.43111e-06	3.38024e-06	2.80331e-06	0.363615	0.0280604	0.364696	4.4128	70.7827	917.223	919.95	-85.5872	0.0000000E+000	0.0000000E+000	0.0000000E+000	85.5872	0.0000000E+000	0.0000000E+000	0.0000000E+000	-85.5872	0.0000000E+000	0.0000000E+000	0.0000000E+000	-4.4128	0.0000000E+000	0.0000000E+000	0.0000000E+000	4.4128	12.9583	85.5872	-1.37261e-05
39814.1	2.75538	0.313956	2.77321	-6.50042	779.599	0.441839	-0.0702792	12.7325	0.163188	1	37	0.00517383	0.00186565	0	-4.05801e-05	1.22535	0.791984	25.4322	3.50937e-05	1.81215e-05	3.53795e-05	1.74176e-05	1.80016e-05	1.97741e-05	0.515015	0.318912	9.43983	1.62107e-06	3.98698e-06	4.69906e-06	4.5038e-06	5.02179e-06	1.85342e-06	0.358275	0.040823	0.360593	6.50042	163.188	1432.19	1441.46	-83.4996	0.0000000E+000	0.0000000E+000	0.0000000E+000	83.4996	0.0000000E+000	0.0000000E+000	0.0000000E+000	-83.4996	0.0000000E+000	0.0000000E+000	0.0000000E+000	-6.50042	0.0000000E+000	0.0000000E+000	0.0000000E+000	6.50042	8.77631	83.4996	-1.81222e-05
25116.9	2.79044	0.461431	2.82833	-9.38955	781.23	0.441875	-0.0789893	13.7324	0.365511	1	37	0.00514961	0.00182072	0	-7.72188e-05	1.45971	1.65411	26.0417	3.26732e-05	3.16652e-05	2.94563e-05	3.00642e-05	3.2202e-05	2.33923e-05	0.688624	0.325228	9.7498	5.99222e-06	4.37027e-06	2.7588e-06	7.09046e-06	4.95831e-06	3.51673e-06	0.348828	0.0576828	0.353565	9.38955	365.511	2210.37	2240.39	-80.6105	0.0000000E+000	0.0000000E+000	0.0000000E+000	80.6105	0.0000000E+000	0.0000000E+000	0.0000000E+000	-80.6105	0.0000000E+000	0.0000000E+000	0.0000000E+000	-9.38955	0.0000000E+000	0.0000000E+000	0.0000000E+000	9.38955	6.04736	80.6105	-1.76264e-05
15847.7	2.85603	0.693847	2.9391	-13.655	782.86	0.441852	-0.0789707	14.4741	0.806658	1	37	0.00508167	0.00172899	0	-0.000114716	1.52096	0.610696	25.8744	1.91244e-05	1.20799e-05	2.01889e-05	3.95088e-05	1.55511e-05	5.48955e-05	0.449701	0.287354	10.1717	9.63836e-07	2.1586e-06	3.5421e-06	2.45594e-06	4.15927e-06	3.83185e-06	0.330623	0.0803221	0.34024	13.655	806.658	3320.38	3416.96	-76.345	0.0000000E+000	0.0000000E+000	0.0000000E+000	76.345	0.0000000E+000	0.0000000E+000	0.0000000E+000	-76.345	0.0000000E+000	0.0000000E+000	0.0000000E+000	-13.655	0.0000000E+000	0.0000000E+000	0.0000000E+000	13.655	4.11622	76.345	-1.89303e-05
10002.2	2.98925	0.985643	3.14755	-18.2489	784.49	0.441862	-0.0810366	16.1437	1.58306	1	37	0.00506668	0.00160972	0	-0.000153247	1.42568	0.755643	25.9687	2.24052e-05	4.67945e-05	2.96108e-05	1.85467e-05	9.45386e-06	3.19805e-05	0.509445	0.232474	11.086	1.38171e-06	3.65006e-06	2.48053e-06	3.20381e-06	3.57701e-06	3.66544e-06	0.301728	0.0994887	0.317707	18.2489	1583.06	4801.08	5055.34	-71.7511	0.0000000E+000	0.0000000E+000	0.0000000E+000	71.7511	0.0000000E+000	0.0000000E+000	0.0000000E+000	-71.7511	0.0000000E+000	0.0000000E+000	0.0000000E+000	-18.2489	0.0000000E+000	0.0000000E+000	0.0000000E+000	18.2489	3.03279	71.7511	-1.76325e-05
6307.74	3.17629	1.46961	3.49979	-24.8291	786.242	0.441753	-0.0793988	17.169	3.02736	1	37	0.00504573	0.00144172	0	-0.000191664	1.48877	0.730451	25.2617	1.00869e-05	3.96776e-05	1.29187e-05	2.80421e-05	3.30719e-05	3.51816e-05	0.795349	0.450722	12.2302	3.728e-06	3.36005e-06	4.14996e-06	4.88218e-06	3.5579e-06	6.66164e-06	0.25932	0.119982	0.285731	24.8291	3027.36	6543.07	7209.49	-65.1709	0.0000000E+000	0.0000000E+000	0.0000000E+000	65.1709	0.0000000E+000	0.0000000E+000	0.0000000E+000	-65.1709	0.0000000E+000	0.0000000E+000	0.0000000E+000	-24.8291	0.0000000E+000	0.0000000E+000	0.0000000E+000	24.8291	2.16132	65.1709	-1.88958e-05
[...]
631.01	8.25221	4.96634	9.63138	-31.0403	794.164	0.441776	-0.00471471	50.7864	13.5034	1	38	0.00482706	0.000501181	0	-0.000219178	1.54064	0.797936	26.2952	1.83767e-05	2.26186e-05	4.28194e-05	1.41743e-05	1.78962e-05	3.6055e-05	0.613672	0.186002	5.89692	2.0615e-06	1.06167e-06	6.21961e-07	9.51586e-07	1.2933e-06	5.25874e-07	0.0889597	0.0535377	0.103827	31.0403	13503.4	22437.6	26187.6	-58.9597	0.0000000E+000	0.0000000E+000	0.0000000E+000	58.9597	0.0000000E+000	0.0000000E+000	0.0000000E+000	-58.9597	0.0000000E+000	0.0000000E+000	0.0000000E+000	-31.0403	0.0000000E+000	0.0000000E+000	0.0000000E+000	31.0403	1.66163	58.9597	-1.56448e-07
398.089	9.84666	5.3519	11.2071	-28.5251	795.653	0.44173	-0.00512248	74.702	17.0357	1	38	0.00479261	0.00042764	0	-0.000220112	1.56685	0.902649	26.3828	1.34006e-05	2.21238e-05	1.61828e-05	4.85054e-05	2.42679e-05	3.42506e-05	0.700147	0.150891	6.93831	2.25271e-06	6.53615e-07	7.1404e-07	1.29144e-06	4.1266e-07	7.93943e-07	0.0783973	0.0426108	0.089229	28.5251	17035.7	31343	35673.5	-61.4749	0.0000000E+000	0.0000000E+000	0.0000000E+000	61.4749	0.0000000E+000	0.0000000E+000	0.0000000E+000	-61.4749	0.0000000E+000	0.0000000E+000	0.0000000E+000	-28.5251	0.0000000E+000	0.0000000E+000	0.0000000E+000	28.5251	1.83984	61.4749	-5.49334e-07
251.206	11.4326	5.63545	12.746	-26.2401	797.138	0.441745	-0.00380796	112.425	21.977	1	38	0.00476276	0.000373666	0	-0.000220991	1.28214	0.774567	26.5683	1.81961e-05	2.23178e-05	1.92148e-05	2.78782e-05	2.40295e-05	2.57273e-05	0.725529	0.229821	7.87555	2.19901e-06	7.5218e-07	6.29953e-07	7.28879e-07	6.1638e-07	6.26707e-07	0.0703708	0.0346879	0.0784557	26.2401	21977	44584.4	49706.7	-63.7599	0.0000000E+000	0.0000000E+000	0.0000000E+000	63.7599	0.0000000E+000	0.0000000E+000	0.0000000E+000	-63.7599	0.0000000E+000	0.0000000E+000	0.0000000E+000	-26.2401	0.0000000E+000	0.0000000E+000	0.0000000E+000	26.2401	2.02868	63.7599	-1.94072e-07
158.529	13.034	6.11321	14.3964	-25.1276	798.63	0.441773	-0.00367204	164.226	29.6125	1	38	0.00475952	0.000330606	0	-0.000223124	1.15692	0.593484	26.674	1.94261e-05	1.95452e-05	2.33955e-05	1.86363e-05	1.63615e-05	2.92511e-05	0.735807	0.199499	9.00349	2.05057e-06	7.94721e-07	4.0393e-07	4.93956e-07	6.58373e-07	2.17509e-07	0.0628884	0.029496	0.069462	25.1276	29612.5	63136.7	69736.3	-64.8724	0.0000000E+000	0.0000000E+000	0.0000000E+000	64.8724	0.0000000E+000	0.0000000E+000	0.0000000E+000	-64.8724	0.0000000E+000	0.0000000E+000	0.0000000E+000	-25.1276	0.0000000E+000	0.0000000E+000	0.0000000E+000	25.1276	2.1321	64.8724	-1.28286e-06
99.9682	14.675	6.83665	16.1894	-24.9794	800.103	0.441768	-0.0038452	232.871	41.5279	1	38	0.00475467	0.000293691	0	-0.000224437	1.43962	0.417822	26.5539	2.99732e-05	2.30682e-05	1.97668e-05	1.73904e-05	2.87265e-05	2.9218e-05	0.793477	0.21184	10.1249	1.73713e-06	2.28542e-07	6.71802e-07	8.00642e-07	6.48934e-07	5.88675e-07	0.055991	0.0260845	0.0617688	24.9794	41527.9	89140.8	98339.4	-65.0206	0.0000000E+000	0.0000000E+000	0.0000000E+000	65.0206	0.0000000E+000	0.0000000E+000	0.0000000E+000	-65.0206	0.0000000E+000	0.0000000E+000	0.0000000E+000	-24.9794	0.0000000E+000	0.0000000E+000	0.0000000E+000	24.9794	2.14652	65.0206	-8.69808e-07