Folder: Thesis/Python/Experiments/Baichen/IronSymmetricNIPSElectrode/FTFF/Data

File: ve=1cms.mpt
EC-Lab ASCII FILE
Nb header lines : 66

Potentio Electrochemical Impedance Spectroscopy

Run on channel : 1 (SN 50780)
User :
CE vs. WE compliance from -10 V to 10 V
Electrode connection : standard
Potential control : Ewe
Ewe ctrl range : min = -10.00 V, max = 10.00 V
Safety Limits :
	Do not start on E overload
Acquisition started on : 02/13/2023 18:29:28.162
Loaded Setting File :  NONE
Saved on :
	File : NoPattern_FTFF_05Fe_2MHCL_ve1cms_EIS_PCGA_01_PEIS_C01.mpr
	Directory : C:\Users\sto063\Documents\EC-Lab\Data\Baichen\Micormolding\20230213_denseNoPatternS3_FTFF\
	Host : 131.155.90.158
Device : VSP-3e (SN .003050)
Address : USB
EC-Lab for windows v11.43 (software)
Internet server v11.40 (firmware)
Command interpretor v11.40 (firmware)
Electrode material :
Initial state :
Electrolyte :
Comments :
Electrode surface area : 0.001 cm2
Characteristic mass : 0.001 g
Equivalent Weight : 0.000 g/eq.
Density : 0.000 g/cm3
Volume (V) : 0.001 cm3
Cycle Definition : Charge/Discharge alternance
Mode                Single sine
E (V)               0.0000
vs.                 Eoc
tE (h:m:s)          0:00:0.0000
record              0
dI                  0.000
unit dI             mA
dt (s)              0.000
fi                  200.000
unit fi             kHz
ff                  5.000
unit ff             mHz
Nd                  8
Points              per decade
spacing             Logarithmic
Va (mV)             10.0
pw                  0.10
Na                  5
corr                0
E range min (V)     -10.000
E range max (V)     10.000
I Range             Auto
Bandwidth           5
nc cycles           0
goto Ns'            0
nr cycles           0
inc. cycle          0

Modify on : 02/13/2023 18:29
ff                  3.000

freq/Hz	Re(Z)/Ohm	-Im(Z)/Ohm	|Z|/Ohm	Phase(Z)/deg	time/s	<Ewe>/V	<I>/mA	Cs/uF	Cp/uF	cycle number	I Range	|Ewe|/V	|I|/A	Ns	(Q-Qo)/mA.h	Re(Y)/Ohm-1	Im(Y)/Ohm-1	|Y|/Ohm-1	Phase(Y)/deg	Re(C)/nF	Im(C)/nF	|C|/nF	Phase(C)/deg	Re(M)	Im(M)	|M|	Phase(M)/deg	Re(Permittivity)	Im(Permittivity)	|Permittivity|	Phase(Permittivity)/deg	Re(Resistivity)/Ohm.cm	Im(Resistivity)/Ohm.cm	|Resistivity|/Ohm.cm	Phase(Resistivity)/deg	Re(Conductivity)/mS/cm	Im(Conductivity)/mS/cm	|Conductivity|/mS/cm	Phase(Conductivity)/deg	Tan(Delta)	Loss Angle(Delta)/deg	dq/mA.h
199998	0.196687	-0.147746	0.245997	36.9128	1.73948	-0.000541448	-2.16378	-5.38616	-1.94289	1	9	0.00100648	0.00409142	0	-0.000890705	3.25024	-2.44149	4.06509	-36.9128	-1942.89	2586.49	3234.93	-126.913	0.0000000E+000	0.0000000E+000	0.0000000E+000	126.913	0.0000000E+000	0.0000000E+000	0.0000000E+000	-126.913	0.0000000E+000	0.0000000E+000	0.0000000E+000	36.9128	0.0000000E+000	0.0000000E+000	0.0000000E+000	-36.9128	-1.33125	-36.9128	-0.000890705
83358.1	0.208461	-0.0578981	0.216352	15.5221	4.34848	-0.000567751	-1.75351	-32.9767	-2.36164	1	9	0.0234788	0.108521	0	-0.00232489	4.45351	-1.23692	4.62209	-15.5221	-2361.64	8503.05	8824.92	-105.522	0.0000000E+000	0.0000000E+000	0.0000000E+000	105.522	0.0000000E+000	0.0000000E+000	0.0000000E+000	-105.522	0.0000000E+000	0.0000000E+000	0.0000000E+000	15.5221	0.0000000E+000	0.0000000E+000	0.0000000E+000	-15.5221	-3.60049	-15.5221	-0.000527585
34989.2	0.21075	-0.0209166	0.211786	5.66793	8.32747	-0.000410582	-0.946747	-217.468	-2.1212	1	9	0.00927467	0.0437927	0	-0.00340383	4.69867	-0.466334	4.72175	-5.66793	-2121.2	21372.8	21477.8	-95.6679	0.0000000E+000	0.0000000E+000	0.0000000E+000	95.6679	0.0000000E+000	0.0000000E+000	0.0000000E+000	-95.6679	0.0000000E+000	0.0000000E+000	0.0000000E+000	5.66793	0.0000000E+000	0.0000000E+000	0.0000000E+000	-5.66793	-10.0758	-5.66793	-0.000156104
14632.2	0.214194	-0.00512641	0.214255	1.37103	10.7995	-0.000392382	-0.862951	-2121.76	-1.21468	1	9	0.0104723	0.0488778	0	-0.0040664	4.66599	-0.111673	4.66732	-1.37103	-1214.67	50752.1	50766.7	-91.371	0.0000000E+000	0.0000000E+000	0.0000000E+000	91.371	0.0000000E+000	0.0000000E+000	0.0000000E+000	-91.371	0.0000000E+000	0.0000000E+000	0.0000000E+000	1.37103	0.0000000E+000	0.0000000E+000	0.0000000E+000	-1.37103	-41.7824	-1.37103	-0.000208214
6121.38	0.21773	0.00109822	0.217732	-0.288995	13.6927	-0.000408068	-0.803532	23674.6	0.602301	1	9	0.0102846	0.0472352	0	-0.00478964	4.59274	0.0231655	4.5928	0.288995	602.299	119410	119412	-89.711	0.0000000E+000	0.0000000E+000	0.0000000E+000	89.711	0.0000000E+000	0.0000000E+000	0.0000000E+000	-89.711	0.0000000E+000	0.0000000E+000	0.0000000E+000	-0.288995	0.0000000E+000	0.0000000E+000	0.0000000E+000	0.288995	198.257	0.288995	-0.000214659
2570.82	0.220902	0.00301089	0.220922	-0.780894	17.4837	-0.000392047	-0.774922	20561.4	3.81913	1	9	0.0102128	0.0462282	0	-0.00565905	4.52606	0.0616903	4.52648	0.780894	3819.12	280200	280226	-89.2191	0.0000000E+000	0.0000000E+000	0.0000000E+000	89.2191	0.0000000E+000	0.0000000E+000	0.0000000E+000	-89.2191	0.0000000E+000	0.0000000E+000	0.0000000E+000	-0.780894	0.0000000E+000	0.0000000E+000	0.0000000E+000	0.780894	73.3675	0.780894	-0.000310545
1070.34	0.223218	0.00316007	0.22324	-0.811076	20.8307	-0.000387446	-0.760617	47054.5	9.42866	1	9	0.0105707	0.0473511	0	-0.00631237	4.47904	0.0634092	4.47949	0.811076	9428.63	666012	666079	-89.1889	0.0000000E+000	0.0000000E+000	0.0000000E+000	89.1889	0.0000000E+000	0.0000000E+000	0.0000000E+000	-89.1889	0.0000000E+000	0.0000000E+000	0.0000000E+000	-0.811076	0.0000000E+000	0.0000000E+000	0.0000000E+000	0.811076	70.637	0.811076	-0.000193856
447.85	0.224986	0.00297087	0.225006	-0.756526	24.1867	-0.000387204	-0.745847	119620	20.8536	1	9	0.0106289	0.0472382	0	-0.0069777	4.44394	0.0586806	4.44432	0.756526	20853.5	1.57927e+06	1.5794e+06	-89.2435	0.0000000E+000	0.0000000E+000	0.0000000E+000	89.2435	0.0000000E+000	0.0000000E+000	0.0000000E+000	-89.2435	0.0000000E+000	0.0000000E+000	0.0000000E+000	-0.756526	0.0000000E+000	0.0000000E+000	0.0000000E+000	0.756526	75.7309	0.756526	-0.000258668
187.217	0.226516	0.00309161	0.226537	-0.781954	27.5224	-0.000396238	-0.748346	274974	51.2131	1	9	0.0106412	0.0469735	0	-0.00768279	4.41388	0.0602429	4.41429	0.781954	51213	3.75228e+06	3.75263e+06	-89.218	0.0000000E+000	0.0000000E+000	0.0000000E+000	89.218	0.0000000E+000	0.0000000E+000	0.0000000E+000	-89.218	0.0000000E+000	0.0000000E+000	0.0000000E+000	-0.781954	0.0000000E+000	0.0000000E+000	0.0000000E+000	0.781954	73.268	0.781954	-0.000220496
78.3208	0.228105	0.00409187	0.228142	-1.02769	30.8941	-0.000386756	-0.716827	496617	159.755	1	9	0.0106431	0.0466514	0	-0.00842926	4.38253	0.0786161	4.38324	1.02769	159756	8.9057e+06	8.90714e+06	-88.9723	0.0000000E+000	0.0000000E+000	0.0000000E+000	88.9723	0.0000000E+000	0.0000000E+000	0.0000000E+000	-88.9723	0.0000000E+000	0.0000000E+000	0.0000000E+000	-1.02769	0.0000000E+000	0.0000000E+000	0.0000000E+000	1.02769	55.746	1.02769	-0.000232419
32.747	0.230048	0.00540192	0.230112	-1.34515	34.3635	-0.000383031	-0.70573	899706	495.815	1	9	0.0106347	0.0462153	0	-0.00906218	4.34452	0.102017	4.34572	1.34515	495815	2.1115e+07	2.11208e+07	-88.6548	0.0000000E+000	0.0000000E+000	0.0000000E+000	88.6548	0.0000000E+000	0.0000000E+000	0.0000000E+000	-88.6548	0.0000000E+000	0.0000000E+000	0.0000000E+000	-1.34515	0.0000000E+000	0.0000000E+000	0.0000000E+000	1.34515	42.5864	1.34515	-0.000187369
[...]
1.00237	0.254759	0.0279632	0.256289	-6.2639	59.6239	-0.000372416	-0.751329	5.67811e+06	67595.5	1	10	0.0106375	0.0415059	0	-0.0156676	3.87855	0.425723	3.90185	6.2639	6.75955e+07	6.15829e+08	6.19528e+08	-83.7361	0.0000000E+000	0.0000000E+000	0.0000000E+000	83.7361	0.0000000E+000	0.0000000E+000	0.0000000E+000	-83.7361	0.0000000E+000	0.0000000E+000	0.0000000E+000	-6.2639	0.0000000E+000	0.0000000E+000	0.0000000E+000	6.2639	9.11051	6.2639	-0.00212442
0.418766	0.271696	0.0409692	0.274768	-8.57506	87.9481	-0.000380452	-0.718502	9.27664e+06	206241	1	10	0.0106359	0.0387089	0	-0.0160108	3.59875	0.542658	3.63944	8.57506	2.06241e+08	1.36773e+09	1.38319e+09	-81.4249	0.0000000E+000	0.0000000E+000	0.0000000E+000	81.4249	0.0000000E+000	0.0000000E+000	0.0000000E+000	-81.4249	0.0000000E+000	0.0000000E+000	0.0000000E+000	-8.57506	0.0000000E+000	0.0000000E+000	0.0000000E+000	8.57506	6.63172	8.57506	-0.000895062
0.175514	0.291114	0.0594951	0.297131	-11.5505	155.295	-0.000373007	-0.687745	1.52414e+07	611070	1	10	0.0106372	0.0357998	0	-0.0410583	3.29736	0.673882	3.36551	11.5505	6.1107e+08	2.99002e+09	3.05182e+09	-78.4495	0.0000000E+000	0.0000000E+000	0.0000000E+000	78.4495	0.0000000E+000	0.0000000E+000	0.0000000E+000	-78.4495	0.0000000E+000	0.0000000E+000	0.0000000E+000	-11.5505	0.0000000E+000	0.0000000E+000	0.0000000E+000	11.5505	4.89308	11.5505	-0.0115331
0.0732907	0.317714	0.101501	0.333534	-17.7173	316.211	-0.000373035	-0.621908	2.13943e+07	1.98136e+06	1	10	0.0106386	0.0318966	0	-0.0573463	2.85599	0.912414	2.99819	17.7173	1.98136e+09	6.20194e+09	6.51075e+09	-72.2827	0.0000000E+000	0.0000000E+000	0.0000000E+000	72.2827	0.0000000E+000	0.0000000E+000	0.0000000E+000	-72.2827	0.0000000E+000	0.0000000E+000	0.0000000E+000	-17.7173	0.0000000E+000	0.0000000E+000	0.0000000E+000	17.7173	3.13014	17.7173	-6.30785e-05
0.0306507	0.388254	0.180867	0.428315	-24.9783	700.834	-0.000371771	-0.57013	2.87092e+07	5.11931e+06	1	10	0.01064	0.0248416	0	-0.101666	2.11636	0.985898	2.33473	24.9783	5.11931e+09	1.09893e+10	1.21232e+10	-65.0217	0.0000000E+000	0.0000000E+000	0.0000000E+000	65.0217	0.0000000E+000	0.0000000E+000	0.0000000E+000	-65.0217	0.0000000E+000	0.0000000E+000	0.0000000E+000	-24.9783	0.0000000E+000	0.0000000E+000	0.0000000E+000	24.9783	2.14663	24.9783	-0.0344287
0.0128333	0.558787	0.231565	0.604868	-22.5094	1619.53	-0.000375226	-0.508868	5.3556e+07	7.84932e+06	1	10	0.0106384	0.0175879	0	-0.321931	1.5273	0.632924	1.65325	22.5094	7.84932e+09	1.89411e+10	2.05031e+10	-67.4906	0.0000000E+000	0.0000000E+000	0.0000000E+000	67.4906	0.0000000E+000	0.0000000E+000	0.0000000E+000	-67.4906	0.0000000E+000	0.0000000E+000	0.0000000E+000	-22.5094	0.0000000E+000	0.0000000E+000	0.0000000E+000	22.5094	2.41309	22.5094	-0.0817728
0.0053664	0.704742	0.154347	0.721446	-12.3534	3814.67	-0.000379666	-0.498971	1.9215e+08	8.79482e+06	1	10	0.0106411	0.0147497	0	-0.525929	1.35401	0.296544	1.3861	12.3534	8.79482e+09	4.01568e+10	4.11087e+10	-77.6466	0.0000000E+000	0.0000000E+000	0.0000000E+000	77.6466	0.0000000E+000	0.0000000E+000	0.0000000E+000	-77.6466	0.0000000E+000	0.0000000E+000	0.0000000E+000	-12.3534	0.0000000E+000	0.0000000E+000	0.0000000E+000	12.3534	4.56597	12.3534	-0.0633859
0.00300081	0.741048	0.100861	0.74788	-7.7507	6788.37	-0.000377524	-0.507333	5.25844e+08	9.56407e+06	1	10	0.0106373	0.0142232	0	-0.758205	1.3249	0.180327	1.33711	7.7507	9.56407e+09	7.0269e+10	7.09169e+10	-82.2493	0.0000000E+000	0.0000000E+000	0.0000000E+000	82.2493	0.0000000E+000	0.0000000E+000	0.0000000E+000	-82.2493	0.0000000E+000	0.0000000E+000	0.0000000E+000	-7.7507	0.0000000E+000	0.0000000E+000	0.0000000E+000	7.7507	7.34718	7.7507	-0.153882

File: ve=1cms.txt
freq/Hz	Re(Z)/Ohm	-Im(Z)/Ohm	|Z|/Ohm	Phase(Z)/deg	time/s	cycle number
199998	0.196687	-0.147746	0.245997	36.9128	1.73948	1
149393	0.204958	-0.108861	0.232075	27.9745	2.5635	1
111593	0.207811	-0.0799514	0.222661	21.0433	3.38748	1
83358.1	0.208461	-0.0578981	0.216352	15.5221	4.34848	1
62258.8	0.209046	-0.0419049	0.213205	11.3351	6.40549	1
46782.2	0.209986	-0.0301715	0.212143	8.17647	7.50349	1
34989.2	0.21075	-0.0209166	0.211786	5.66793	8.32747	1
26165.4	0.211892	-0.0140087	0.212355	3.78245	9.15148	1
19568.4	0.21312	-0.00886791	0.213305	2.3827	9.97549	1
14632.2	0.214194	-0.00512641	0.214255	1.37103	10.7995	1
10939.4	0.215581	-0.00238484	0.215594	0.633803	11.6235	1
8179.21	0.21649	-0.000310854	0.216491	0.0822696	12.5411	1
6121.38	0.21773	0.00109822	0.217732	-0.288995	13.6927	1
4576.46	0.218825	0.00212257	0.218835	-0.555744	15.0307	1
3421.09	0.219939	0.002736	0.219956	-0.712712	16.1467	1
2570.82	0.220902	0.00301089	0.220922	-0.780894	17.4837	1
1913.16	0.221844	0.00319076	0.221867	-0.824022	18.5999	1
1432.29	0.222563	0.00318765	0.222586	-0.820562	19.7154	1
1070.34	0.223218	0.00316007	0.22324	-0.811076	20.8307	1
800.256	0.223954	0.00314756	0.223976	-0.805209	21.9467	1
598.659	0.224532	0.00299768	0.224552	-0.764898	23.0662	1
447.85	0.224986	0.00297087	0.225006	-0.756526	24.1867	1
334.679	0.225545	0.00304356	0.225566	-0.773115	25.303	1
250.401	0.225978	0.00312848	0.226	-0.793161	26.4184	1
187.217	0.226516	0.00309161	0.226537	-0.781954	27.5224	1
140.045	0.226944	0.00343839	0.22697	-0.868014	28.6377	1
104.765	0.227465	0.00369549	0.227495	-0.93077	29.7572	1
78.3208	0.228105	0.00409187	0.228142	-1.02769	30.8941	1
58.5938	0.228654	0.00446014	0.228698	-1.11747	32.0346	1
43.7811	0.229355	0.00492005	0.229408	-1.2289	33.1783	1
32.747	0.230048	0.00540192	0.230112	-1.34515	34.3635	1
24.506	0.231038	0.00625	0.231122	-1.54958	35.4988	1
18.3392	0.231931	0.00705094	0.232038	-1.74131	36.7059	1
13.6901	0.233027	0.00800721	0.233164	-1.96801	37.9169	1
10.2392	0.234349	0.00919665	0.234529	-2.24733	39.0101	1
7.65931	0.235824	0.0104887	0.236057	-2.54666	40.4329	1
5.72764	0.237483	0.0120766	0.237789	-2.91113	41.4233	1
4.28317	0.239338	0.0138994	0.239742	-3.32368	42.7083	1
3.20184	0.241453	0.0160033	0.241983	-3.79197	44.3892	1
2.39794	0.244115	0.0185183	0.244817	-4.33809	46.5989	1
1.79186	0.247357	0.021177	0.248262	-4.89333	49.5261	1
1.33959	0.250679	0.0244996	0.251873	-5.58196	53.4127	1
1.00237	0.254759	0.0279632	0.256289	-6.2639	59.6239	1
0.750048	0.259573	0.0320165	0.26154	-7.03151	66.5017	1
0.559956	0.264935	0.0362852	0.267409	-7.79864	75.6895	1
0.418766	0.271696	0.0409692	0.274768	-8.57506	87.9481	1
0.313252	0.277701	0.0464858	0.281565	-9.50292	104.312	1
0.234567	0.284155	0.0522538	0.28892	-10.4198	126.142	1
0.175514	0.291114	0.0594951	0.297131	-11.5505	155.295	1
0.130994	0.298762	0.0699393	0.306839	-13.1755	194.333	1
0.0980091	0.307051	0.0840051	0.318335	-15.301	246.487	1
0.0732907	0.317714	0.101501	0.333534	-17.7173	316.211	1
0.0547723	0.333653	0.12352	0.355783	-20.3148	409.486	1
0.040958	0.356649	0.150662	0.387166	-22.901	534.201	1
0.0306507	0.388254	0.180867	0.428315	-24.9783	700.834	1
0.0229122	0.433908	0.208551	0.481425	-25.6705	923.726	1
0.0171417	0.492633	0.227424	0.542595	-24.7804	1221.63	1
0.0128333	0.558787	0.231565	0.604868	-22.5094	1619.53	1
0.00959514	0.622969	0.215354	0.659142	-19.0698	2151.68	1
0.00717595	0.671895	0.18536	0.696994	-15.423	2863.22	1
0.0053664	0.704742	0.154347	0.721446	-12.3534	3814.67	1
0.00401319	0.726098	0.125528	0.736868	-9.80835	5086.92	1
0.00300081	0.741048	0.100861	0.74788	-7.7507	6788.37	1