Folder: Thesis/Python/Data/RDE (part 20)

File: 240223-OCV-EIS-Fe2Fe3_5mM-HCl1M-2000RPM-Ag_AgCl_BLF8-GC-RDE-1minRestVSEoc-3ppf-14p1mVAmplitude_07_OCV_C15.mpt
EC-Lab ASCII FILE
Nb header lines : 47

Open Circuit Voltage

Run on channel : 15 (SN 19485)
User :
Electrode connection : standard
Potential control : Ewe
Ewe ctrl range : min = -1.00 V, max = 1.00 V
Ewe,I filtering : 50 kHz
Safety Limits :
	Do not start on E overload
Channel : Floating
Acquisition started on : 02/23/2024 14:14:06.635
Loaded Setting File :  NONE
Saved on :
	File : 240223-OCV-EIS-Fe2Fe3_5mM-HCl1M-2000RPM-Ag_AgCl_BLF8-GC-RDE-1minRestVSEoc-3ppf-14p1mVAmplitude_07_OCV_C15.mpr
	Directory : C:\Data\mathias\RDE-RPM-variation\
	Host : 192.168.0.1
Device : VMP-300 (SN 0826)
Address : USB
EC-Lab for windows v11.52 (software)
Internet server v11.52 (firmware)
Command interpretor v11.52 (firmware)
Electrode material :
Initial state :
Electrolyte :
Comments :
Cable : special
Reference electrode : SCE Saturated Calomel Electrode (0.241 V)
Electrode surface area : 0.001 cm²
Characteristic mass : 0.001 g
Equivalent Weight : 0.000 g/eq.
Density : 0.000 g/cm3
Volume (V) : 0.001 cm³
Record EIS quality indicators
Cycle Definition : Charge/Discharge alternance
tR (h:m:s)          0:01:0.0000
dER/dt (mV/h)       1.0
record              <Ewe>
dER (mV)            0.00
dtR (s)             0.5000
E range min (V)     -1.000
E range max (V)     1.000

mode	error	time/s	<Ewe/V>
3	0	1448.17	0.459468
3	0	1448.67	0.459651
3	0	1449.17	0.45972
3	0	1449.67	0.459752
3	0	1450.17	0.459767
3	0	1450.67	0.459777
3	0	1451.17	0.459782
3	0	1451.67	0.459786
3	0	1452.17	0.459788
3	0	1452.67	0.459795
3	0	1453.17	0.459797
3	0	1453.67	0.4598
3	0	1454.17	0.459801
3	0	1454.67	0.459803
3	0	1455.17	0.459805
3	0	1455.67	0.459807
3	0	1456.17	0.459807
3	0	1456.67	0.459804
3	0	1457.17	0.459806
3	0	1457.67	0.459807
3	0	1458.17	0.459809
3	0	1458.67	0.459808
3	0	1459.17	0.459809
3	0	1459.67	0.459808
3	0	1460.17	0.459809
3	0	1460.67	0.459807
3	0	1461.17	0.459808
3	0	1461.67	0.45981
3	0	1462.17	0.459806
3	0	1462.67	0.459808
3	0	1463.17	0.459808
3	0	1463.67	0.459808
3	0	1464.17	0.459807
3	0	1464.67	0.459808
3	0	1465.17	0.459808
3	0	1465.67	0.459803
3	0	1466.17	0.459804
3	0	1466.67	0.459802
3	0	1467.17	0.459801
3	0	1467.67	0.459801
3	0	1468.17	0.459804
3	0	1468.67	0.459805
3	0	1469.17	0.459802
3	0	1469.67	0.4598
3	0	1470.17	0.459803
3	0	1470.67	0.459804
3	0	1471.17	0.459804
3	0	1471.67	0.459803
3	0	1472.17	0.459806
3	0	1472.67	0.459803
3	0	1473.17	0.459805
3	0	1473.67	0.459802
3	0	1474.17	0.459804
3	0	1474.67	0.459805
3	0	1475.17	0.459807
3	0	1475.67	0.459806
3	0	1476.17	0.459806
3	0	1476.67	0.459806
3	0	1477.17	0.459801
3	0	1477.67	0.459804
3	0	1478.17	0.459803
3	0	1478.67	0.459808
3	0	1479.17	0.459807
3	0	1479.67	0.459806
3	0	1480.17	0.459808
3	0	1480.67	0.459808
3	0	1481.17	0.459809
3	0	1481.67	0.459808
3	0	1482.17	0.459812
3	0	1482.67	0.459809
3	0	1483.17	0.459809
3	0	1483.67	0.459808
3	0	1484.17	0.459808
3	0	1484.67	0.45981
3	0	1485.17	0.459811
3	0	1485.67	0.459812
3	0	1486.17	0.459811
3	0	1486.67	0.459808
3	0	1487.17	0.459814
3	0	1487.67	0.459813
3	0	1488.17	0.45981
3	0	1488.67	0.459809
3	0	1489.17	0.459809
3	0	1489.67	0.459811
3	0	1490.17	0.459809
3	0	1490.67	0.459808
3	0	1491.17	0.459809
3	0	1491.67	0.459809
3	0	1492.17	0.459807
3	0	1492.67	0.459808
3	0	1493.17	0.459809
3	0	1493.67	0.459809
3	0	1494.17	0.459807
3	0	1494.67	0.459805
3	0	1495.17	0.459803
3	0	1495.67	0.459804
3	0	1496.17	0.459806
3	0	1496.67	0.459806
3	0	1497.17	0.459807
3	0	1497.67	0.459808
3	0	1498.17	0.459807
3	0	1498.67	0.459802
3	0	1499.17	0.459807
3	0	1499.67	0.459802
3	0	1500.17	0.459805
3	0	1500.67	0.459803
3	0	1501.17	0.459805
3	0	1501.67	0.459805
3	0	1502.17	0.459807
3	0	1502.67	0.459805
3	0	1503.17	0.459804
3	0	1503.67	0.459806
3	0	1504.17	0.459806
3	0	1504.67	0.45981
3	0	1505.17	0.459811
3	0	1505.67	0.459811
3	0	1506.17	0.459807
3	0	1506.67	0.459804
3	0	1507.17	0.459803
3	0	1507.67	0.459801
3	0	1507.83	0.459796

File: 240223-OCV-EIS-Fe2Fe3_5mM-HCl1M-2000RPM-Ag_AgCl_BLF8-GC-RDE-AllPreviousVariations_01_OCV_C15.mpt
EC-Lab ASCII FILE
Nb header lines : 47

Open Circuit Voltage

Run on channel : 15 (SN 19485)
User :
Electrode connection : standard
Potential control : Ewe
Ewe ctrl range : min = -1.00 V, max = 1.00 V
Ewe,I filtering : 50 kHz
Safety Limits :
	Do not start on E overload
Channel : Floating
Acquisition started on : 02/23/2024 12:36:41.987
Loaded Setting File :  C:\Data\mathias\RDE-RPM-variation\240222-CV-EIS-Fe2Fe3_5mM-HCl1M-0RPM-Ag_AgCl_BLF8-GC-RDE-DefaultSettings.mps
Saved on :
	File : 240223-OCV-EIS-Fe2Fe3_5mM-HCl1M-2000RPM-Ag_AgCl_BLF8-GC-RDE-AllPreviousVariations_01_OCV_C15.mpr
	Directory : C:\Data\mathias\RDE-RPM-variation\
	Host : 192.168.0.1
Device : VMP-300 (SN 0826)
Address : USB
EC-Lab for windows v11.52 (software)
Internet server v11.52 (firmware)
Command interpretor v11.52 (firmware)
Electrode material :
Initial state :
Electrolyte :
Comments :
Cable : special
Reference electrode : SCE Saturated Calomel Electrode (0.241 V)
Electrode surface area : 0.001 cm²
Characteristic mass : 0.001 g
Equivalent Weight : 0.000 g/eq.
Density : 0.000 g/cm3
Volume (V) : 0.001 cm³
Record EIS quality indicators
Cycle Definition : Charge/Discharge alternance
tR (h:m:s)          0:01:0.0000
dER/dt (mV/h)       1.0
record              <Ewe>
dER (mV)            0.00
dtR (s)             0.5000
E range min (V)     -1.000
E range max (V)     1.000

mode	error	time/s	<Ewe/V>
3	1	0.5	0.460321
3	0	1	0.460323
3	0	1.5	0.460325
3	0	2	0.460325
3	0	2.5	0.460325
3	0	3	0.460323
3	0	3.5	0.46032
3	0	4	0.460319
3	0	4.5	0.460321
3	0	5	0.460321
3	0	5.5	0.460315
3	0	6	0.460314
3	0	6.5	0.460314
3	0	7	0.460314
3	0	7.5	0.460317
3	0	8	0.460316
3	0	8.5	0.460314
3	0	9	0.460315
3	0	9.5	0.460314
3	0	10	0.460313
3	0	10.5	0.460314
3	0	11	0.460311
3	0	11.5	0.460311
3	0	12	0.460311
3	0	12.5	0.460314
3	0	13	0.460314
3	0	13.5	0.460313
3	0	14	0.460312
3	0	14.5	0.460314
3	0	15	0.460313
3	0	15.5	0.46031
3	0	16	0.460309
3	0	16.5	0.460306
3	0	17	0.460306
3	0	17.5	0.460306
3	0	18	0.460305
3	0	18.5	0.460305
3	0	19	0.460308
3	0	19.5	0.460309
3	0	20	0.46031
3	0	20.5	0.460309
3	0	21	0.460306
3	0	21.5	0.460308
3	0	22	0.460311
3	0	22.5	0.46031
3	0	23	0.460311
3	0	23.5	0.460313
3	0	24	0.460312
3	0	24.5	0.460316
3	0	25	0.460318
3	0	25.5	0.460318
3	0	26	0.460319
3	0	26.5	0.460318
3	0	27	0.460318
3	0	27.5	0.460319
3	0	28	0.460318
3	0	28.5	0.460317
3	0	29	0.460315
3	0	29.5	0.460314
3	0	30	0.460313
3	0	30.5	0.460312
3	0	31	0.460311
3	0	31.5	0.46031
3	0	32	0.460306
3	0	32.5	0.460306
3	0	33	0.460308
3	0	33.5	0.460309
3	0	34	0.460308
3	0	34.5	0.46031
3	0	35	0.460308
3	0	35.5	0.460307
3	0	36	0.460304
3	0	36.5	0.460303
3	0	37	0.460307
3	0	37.5	0.460307
3	0	38	0.460306
3	0	38.5	0.460304
3	0	39	0.460305
3	0	39.5	0.460305
3	0	40	0.460304
3	0	40.5	0.460305
3	0	41	0.460302
3	0	41.5	0.460301
3	0	42	0.460305
3	0	42.5	0.460303
3	0	43	0.460304
3	0	43.5	0.460302
3	0	44	0.460303
3	0	44.5	0.460307
3	0	45	0.460308
3	0	45.5	0.460308
3	0	46	0.460311
3	0	46.5	0.460311
3	0	47	0.46031
3	0	47.5	0.46031
3	0	48	0.460311
3	0	48.5	0.460311
3	0	49	0.460308
3	0	49.5	0.460306
3	0	50	0.460308
3	0	50.5	0.460307
3	0	51	0.460306
3	0	51.5	0.460305
3	0	52	0.460308
3	0	52.5	0.460308
3	0	53	0.460307
3	0	53.5	0.460307
3	0	54	0.460305
3	0	54.5	0.460306
3	0	55	0.460304
3	0	55.5	0.460305
3	0	56	0.460305
3	0	56.5	0.460305
3	0	56.5764	0.460304

File: 240223-OCV-EIS-Fe2Fe3_5mM-HCl1M-2000RPM-Ag_AgCl_BLF8-GC-RDE-AllPreviousVariations_02_CV_C15.mpt
EC-Lab ASCII FILE
Nb header lines : 61

Cyclic Voltammetry

Run on channel : 15 (SN 19485)
User :
Electrode connection : standard
Potential control : Ewe
Ewe ctrl range : min = -1.00 V, max = 1.00 V
Ewe,I filtering : 50 kHz
Safety Limits :
	Do not start on E overload
Channel : Floating
Acquisition started on : 02/23/2024 12:36:41.987
Loaded Setting File :  C:\Data\mathias\RDE-RPM-variation\240222-CV-EIS-Fe2Fe3_5mM-HCl1M-0RPM-Ag_AgCl_BLF8-GC-RDE-DefaultSettings.mps
Saved on :
	File : 240223-OCV-EIS-Fe2Fe3_5mM-HCl1M-2000RPM-Ag_AgCl_BLF8-GC-RDE-AllPreviousVariations_02_CV_C15.mpr
	Directory : C:\Data\mathias\RDE-RPM-variation\
	Host : 192.168.0.1
Device : VMP-300 (SN 0826)
Address : USB
EC-Lab for windows v11.52 (software)
Internet server v11.52 (firmware)
Command interpretor v11.52 (firmware)
Electrode material :
Initial state :
Electrolyte :
Comments :
Cable : special
Reference electrode : SCE Saturated Calomel Electrode (0.241 V)
Electrode surface area : 0.001 cm²
Characteristic mass : 0.001 g
Equivalent Weight : 0.000 g/eq.
Density : 0.000 g/cm3
Volume (V) : 0.001 cm³
Record EIS quality indicators
Cycle Definition : Charge/Discharge alternance
Ei (V)              0.000
vs.                 Eoc
dE/dt               20.000
dE/dt unit          mV/s
E1 (V)              1.000
vs.                 Ref
Step percent        50
N                   10
E range min (V)     -1.000
E range max (V)     1.000
I Range             Auto
I Range min         Unset
I Range max         Unset
I Range init        Unset
Bandwidth           8
E2 (V)              0.000
vs.                 Ref
nc cycles           2
Reverse Scan        1
Ef (V)              0.000
vs.                 Eoc

mode	ox/red	error	control changes	counter inc.	time/s	control/V	Ewe/V	<I>/mA	cycle number	(Q-Qo)/C	I Range	step time/s	P/W
2	1	0	1	0	56.6322	0.460391	0.460343	4.57048e-05	1	0.0000000E+000	44	0.000000000000000E+000	2.10399e-08
2	1	0	1	0	59.1324	0.510392	0.510422	0.0220347	1	2.70933e-05	41	2.4851	1.1247e-05
2	1	0	1	0	61.5812	0.559369	0.559404	0.0541604	1	0.000117435	41	4.9339	3.02975e-05
2	1	0	1	0	64.03	0.608345	0.608379	0.103982	1	0.000307738	41	7.3827	6.32606e-05
2	1	0	1	0	66.5088	0.657921	0.657964	0.167209	1	0.000642592	40	9.8615	0.000110017
2	1	0	1	0	68.9577	0.706899	0.706919	0.234941	1	0.00113425	40	12.3104	0.000166084
2	1	0	1	0	71.4065	0.755875	0.755885	0.309467	1	0.0017997	40	14.7592	0.000233921
2	1	0	1	0	73.8554	0.804852	0.804867	0.385748	1	0.00265167	40	17.2081	0.000310476
2	1	0	1	0	76.3042	0.853828	0.853839	0.450689	1	0.00367882	40	19.6569	0.000384816
2	1	0	1	0	78.753	0.902805	0.902813	0.497619	1	0.00484311	40	22.1057	0.000449257
2	1	0	1	0	81.2019	0.951782	0.951786	0.525065	1	0.00610366	40	24.5546	0.000499749
2	1	0	1	0	83.6261	0.999709	0.999703	0.549094	1	0.00741324	40	26.9788	0.00054893
2	1	0	1	0	86.0749	0.950732	0.950728	0.524167	1	0.00872808	40	29.4276	0.00049834
2	1	0	1	0	88.5238	0.901754	0.901746	0.490075	1	0.00997372	40	31.8765	0.000441923
2	1	0	1	0	90.9726	0.852779	0.852773	0.441174	1	0.0111168	40	34.3253	0.000376221
2	1	0	1	0	93.4214	0.803802	0.80379	0.374935	1	0.0121178	40	36.7741	0.000301369
2	1	0	1	0	95.8702	0.754827	0.754812	0.298785	1	0.0129429	40	39.2229	0.000225526
2	1	0	1	0	98.3191	0.705849	0.705839	0.227969	1	0.0135858	40	41.6718	0.00016091
2	1	0	1	0	100.768	0.656872	0.656863	0.164962	1	0.0140652	40	44.1206	0.000108358
2	1	0	1	0	103.217	0.607896	0.607926	0.105845	1	0.0143952	40	46.5695	6.43462e-05
2	1	0	1	0	105.666	0.558919	0.558926	0.0568287	1	0.014591	40	49.0183	3.1763e-05
2	1	0	1	0	108.144	0.509342	0.509339	0.0229283	1	0.0146865	41	51.4971	1.16783e-05
2	0	0	1	0	110.623	0.459766	0.459787	-0.00111351	1	0.0147125	42	0.0999	-5.11976e-07
2	0	0	1	0	113.102	0.41019	0.410198	-0.0277361	1	0.0146787	41	2.5788	-1.13773e-05
2	0	0	1	0	115.551	0.361213	0.361249	-0.0720162	1	0.0145615	41	5.0276	-2.60158e-05
2	0	0	1	0	118.03	0.311636	0.311667	-0.146524	1	0.0142969	40	7.5064	-4.56665e-05
2	0	0	1	0	120.479	0.26266	0.262698	-0.24332	1	0.0138216	40	9.9553	-6.39198e-05
2	0	0	1	0	122.927	0.213683	0.213727	-0.340906	1	0.0131031	40	12.4041	-7.28608e-05
2	0	0	1	0	125.376	0.164706	0.164755	-0.417075	1	0.0121709	40	14.8529	-6.87149e-05
2	0	0	1	0	127.825	0.11573	0.115788	-0.469526	1	0.0110833	40	17.3018	-5.43653e-05
2	0	0	1	0	130.274	0.0667529	0.0668107	-0.498982	1	0.00989767	40	19.7506	-3.33373e-05
2	0	0	1	0	132.723	0.0177762	0.0178457	-0.517357	1	0.00865239	40	22.1994	-9.23262e-06
2	0	0	1	1	135.15	0.03077	0.030824	-0.51017	1	0.00739858	40	24.6264	-1.57255e-05
2	0	0	1	1	137.598	0.0797467	0.0797807	-0.487008	1	0.0061753	40	27.0752	-3.88539e-05
2	0	0	1	1	140.047	0.128723	0.128782	-0.449206	1	0.00502508	40	29.524	-5.78497e-05
2	0	0	1	1	142.496	0.1777	0.177752	-0.389908	1	0.00399303	40	31.9729	-6.93068e-05
2	0	0	1	1	144.945	0.226677	0.226723	-0.305597	1	0.00313868	40	34.4217	-6.92859e-05
2	0	0	1	1	147.394	0.275654	0.275678	-0.206774	1	0.00251177	40	36.8705	-5.70031e-05
2	0	0	1	1	149.843	0.32463	0.324671	-0.117238	1	0.00211945	40	39.3194	-3.80638e-05
2	0	0	1	1	152.291	0.373607	0.373646	-0.0546239	1	0.0019152	40	41.7682	-2.041e-05
2	0	0	1	1	154.77	0.423183	0.42323	-0.0173786	1	0.00183043	41	44.247	-7.35516e-06
2	1	0	1	1	157.219	0.47216	0.472197	0.00626233	2	0.00181804	42	0.6697	2.95705e-06
2	1	0	1	1	159.698	0.521737	0.521804	0.0311934	2	0.00186302	41	3.1485	1.62768e-05
2	1	0	1	1	162.147	0.570713	0.570772	0.0685704	2	0.00198201	41	5.5973	3.91381e-05
2	1	0	1	1	164.626	0.62029	0.620334	0.123781	2	0.00221743	40	8.0761	7.67857e-05
2	1	0	1	1	167.074	0.669266	0.669286	0.188286	2	0.00259875	40	10.525	0.000126017
2	1	0	1	1	169.523	0.718243	0.718242	0.256981	2	0.00314294	40	12.9738	0.000184574
2	1	0	1	1	171.972	0.767221	0.767238	0.332525	2	0.00386363	40	15.4227	0.000255126
2	1	0	1	1	174.421	0.816196	0.816202	0.40542	2	0.00476883	40	17.8715	0.000330905
2	1	0	1	1	176.87	0.865173	0.865158	0.464548	2	0.00583885	40	20.3203	0.000401908
2	1	0	1	1	179.319	0.91415	0.914138	0.507721	2	0.00703228	40	22.7692	0.000464127
2	1	0	1	1	181.767	0.963127	0.963111	0.536281	2	0.00831229	40	25.218	0.000516498
2	1	0	1	1	184.174	0.988714	0.988702	0.546236	2	0.00962156	40	27.6247	0.000540064
2	1	0	1	1	186.623	0.939739	0.939744	0.519947	2	0.0109269	40	30.0735	0.000488617
2	1	0	1	1	189.072	0.890761	0.89076	0.482332	2	0.0121571	40	32.5224	0.000429642
2	1	0	1	1	191.521	0.841784	0.841771	0.429925	2	0.0132767	40	34.9712	0.000361898
2	1	0	1	1	193.97	0.792808	0.792793	0.360891	2	0.0142475	40	37.4201	0.000286112
2	1	0	1	1	196.418	0.743831	0.743829	0.285434	2	0.0150391	40	39.8689	0.000212314
2	1	0	1	1	198.867	0.694854	0.694836	0.216025	2	0.0156505	40	42.3177	0.000150102
2	1	0	1	1	201.316	0.645877	0.645893	0.153113	2	0.0161011	40	44.7666	9.88949e-05
2	1	0	1	1	203.765	0.596901	0.596907	0.0948835	2	0.016403	40	47.2154	5.66366e-05
2	1	0	1	1	206.214	0.547924	0.547933	0.0487704	2	0.0165753	40	49.6642	2.67229e-05
2	1	0	1	1	208.693	0.498348	0.498366	0.0174436	2	0.0166544	41	52.1431	8.69328e-06
2	0	0	1	1	211.171	0.448771	0.448795	-0.00639696	2	0.0166677	42	0.6497	-2.87092e-06
2	0	0	1	1	213.65	0.399195	0.399224	-0.0362114	2	0.0166176	41	3.1285	-1.44565e-05
2	0	0	1	1	216.099	0.350218	0.350239	-0.0870107	2	0.0164723	41	5.5773	-3.04745e-05
2	0	0	1	1	218.578	0.300642	0.300665	-0.168327	2	0.0161616	40	8.0562	-5.06099e-05
2	0	0	1	1	221.027	0.251665	0.251708	-0.268101	2	0.0156285	40	10.505	-6.74831e-05
[...]
2	0	0	1	0	250.391	0.335625	0.335645	-0.101841	2	0.00397525	40	39.8691	-3.41825e-05
2	0	0	1	0	252.84	0.384601	0.38461	-0.0451369	2	0.00380137	40	42.3179	-1.73601e-05
2	0	0	1	0	255.318	0.434178	0.434228	-0.0116645	2	0.0037348	41	44.7968	-5.06507e-06
2	1	0	1	0	257.797	0.483755	0.483843	0.0116773	3	0.00373547	41	1.2494	5.64999e-06
2	1	0	1	0	260.246	0.532731	0.532797	0.0387659	3	0.00379535	41	3.6982	2.06543e-05
2	1	0	1	0	262.695	0.581708	0.581776	0.08043	3	0.00393787	41	6.1471	4.67922e-05
2	1	0	1	0	265.174	0.631284	0.631327	0.13905	3	0.00420748	40	8.6259	8.77861e-05
2	1	0	1	0	267.623	0.680261	0.680276	0.204734	3	0.00462819	40	11.0747	0.000139276
2	1	0	1	0	270.071	0.729237	0.729255	0.275201	3	0.00521495	40	13.5235	0.000200692
2	1	0	1	0	272.52	0.778215	0.778245	0.351338	3	0.00598112	40	15.9724	0.000273427
2	1	0	1	0	274.969	0.827191	0.827215	0.421699	3	0.00693037	40	18.4212	0.000348835
2	1	0	1	0	277.418	0.876168	0.876172	0.475889	3	0.00803285	40	20.8701	0.00041696
2	1	0	1	0	279.867	0.925145	0.925169	0.51455	3	0.00925	40	23.3189	0.000476046
2	1	0	1	0	282.316	0.974121	0.97413	0.540772	3	0.0105463	40	25.7677	0.000526782
2	1	0	1	0	284.722	0.977719	0.977731	0.541557	3	0.0118583	40	28.1745	0.000529497
2	1	0	1	0	287.171	0.928743	0.928737	0.514682	3	0.0131491	40	30.6233	0.000478004
2	1	0	1	0	289.62	0.879766	0.879789	0.472359	3	0.0143587	40	33.0721	0.000415577
2	1	0	1	0	292.069	0.83079	0.830807	0.416507	3	0.0154512	40	35.521	0.000346037
2	1	0	1	0	294.518	0.781813	0.78183	0.345271	3	0.016386	40	37.9698	0.000269944
2	1	0	1	0	296.966	0.732836	0.732861	0.269988	3	0.0171381	40	40.4186	0.000197864
2	1	0	1	0	299.415	0.683859	0.683909	0.202339	3	0.0177143	40	42.8675	0.000138381
2	1	0	1	0	301.864	0.634883	0.634917	0.139875	3	0.0181321	40	45.3163	8.88089e-05
2	1	0	1	0	304.313	0.585906	0.585973	0.0834172	3	0.0184032	40	47.7651	4.88802e-05
2	1	0	1	0	306.792	0.53633	0.536366	0.0403021	3	0.0185528	41	50.244	2.16167e-05
2	1	0	1	0	309.241	0.487353	0.487388	0.0120092	3	0.0186144	41	52.6928	5.85313e-06
2	0	0	1	0	311.749	0.437177	0.43722	-0.0122382	3	0.0186143	41	1.2294	-5.35079e-06
2	0	0	1	0	314.198	0.3882	0.388259	-0.0454439	3	0.018547	41	3.6782	-1.7644e-05
2	0	0	1	0	316.647	0.339223	0.33929	-0.102812	3	0.0183714	41	6.1271	-3.48831e-05
2	0	0	1	0	319.126	0.289647	0.289724	-0.19031	3	0.0180133	40	8.6059	-5.51376e-05
2	0	0	1	0	321.575	0.24067	0.240713	-0.290662	3	0.0174239	40	11.0547	-6.99661e-05
2	0	0	1	0	324.024	0.191694	0.191759	-0.379324	3	0.0165979	40	13.5036	-7.27389e-05
2	0	0	1	0	326.472	0.142717	0.142779	-0.444114	3	0.0155842	40	15.9524	-6.34102e-05
2	0	0	1	0	328.921	0.0937401	0.0937953	-0.485891	3	0.0144435	40	18.4012	-4.55743e-05
2	0	0	1	0	331.37	0.0447634	0.0448377	-0.507519	3	0.0132248	40	20.8501	-2.2756e-05
2	0	0	1	1	333.797	0.00378287	0.00386495	-0.521112	3	0.0119715	40	23.277	-2.01407e-06
2	0	0	1	1	336.246	0.0527596	0.0528175	-0.501554	3	0.0107202	40	25.7258	-2.64908e-05
2	0	0	1	1	338.695	0.101736	0.101804	-0.473694	3	0.00952209	40	28.1747	-4.82237e-05
2	0	0	1	1	341.144	0.150713	0.150763	-0.428535	3	0.00841423	40	30.6235	-6.46071e-05
2	0	0	1	1	343.592	0.19969	0.199737	-0.356451	3	0.00745083	40	33.0723	-7.11965e-05
2	0	0	1	1	346.041	0.248666	0.248723	-0.264182	3	0.00668823	40	35.5212	-6.5708e-05
2	0	0	1	1	348.49	0.297643	0.29768	-0.16618	3	0.00616335	40	37.97	-4.94685e-05
2	0	0	1	1	350.939	0.346621	0.346664	-0.0870484	3	0.0058592	40	40.4189	-3.01766e-05
2	0	0	1	1	353.418	0.396196	0.39625	-0.0357778	3	0.00571294	41	42.8977	-1.41769e-05
2	0	0	1	1	355.867	0.445173	0.445221	-0.00618852	3	0.00566456	41	45.3465	-2.75526e-06
2	1	0	1	1	356.623	0.460341	0.460346	0.000997674	3	0.00566264	42	0.0767	4.59276e-07

File: 240223-OCV-EIS-Fe2Fe3_5mM-HCl1M-2000RPM-Ag_AgCl_BLF8-GC-RDE-AllPreviousVariations_03_OCV_C15.mpt
EC-Lab ASCII FILE
Nb header lines : 47

Open Circuit Voltage

Run on channel : 15 (SN 19485)
User :
Electrode connection : standard
Potential control : Ewe
Ewe ctrl range : min = -1.00 V, max = 1.00 V
Ewe,I filtering : 50 kHz
Safety Limits :
	Do not start on E overload
Channel : Floating
Acquisition started on : 02/23/2024 12:36:41.987
Loaded Setting File :  C:\Data\mathias\RDE-RPM-variation\240222-CV-EIS-Fe2Fe3_5mM-HCl1M-0RPM-Ag_AgCl_BLF8-GC-RDE-DefaultSettings.mps
Saved on :
	File : 240223-OCV-EIS-Fe2Fe3_5mM-HCl1M-2000RPM-Ag_AgCl_BLF8-GC-RDE-AllPreviousVariations_03_OCV_C15.mpr
	Directory : C:\Data\mathias\RDE-RPM-variation\
	Host : 192.168.0.1
Device : VMP-300 (SN 0826)
Address : USB
EC-Lab for windows v11.52 (software)
Internet server v11.52 (firmware)
Command interpretor v11.52 (firmware)
Electrode material :
Initial state :
Electrolyte :
Comments :
Cable : special
Reference electrode : SCE Saturated Calomel Electrode (0.241 V)
Electrode surface area : 0.001 cm²
Characteristic mass : 0.001 g
Equivalent Weight : 0.000 g/eq.
Density : 0.000 g/cm3
Volume (V) : 0.001 cm³
Record EIS quality indicators
Cycle Definition : Charge/Discharge alternance
tR (h:m:s)          0:01:0.0000
dER/dt (mV/h)       1.0
record              <Ewe>
dER (mV)            0.00
dtR (s)             0.5000
E range min (V)     -1.000
E range max (V)     1.000

mode	error	time/s	<Ewe/V>
3	0	357.123	0.458873
3	0	357.623	0.459107
3	0	358.123	0.459264
3	0	358.623	0.459366
3	0	359.123	0.459441
3	0	359.623	0.459496
3	0	360.123	0.459543
3	0	360.623	0.459581
3	0	361.123	0.459612
3	0	361.623	0.45964
3	0	362.123	0.459664
3	0	362.623	0.459685
3	0	363.123	0.459701
3	0	363.623	0.459719
3	0	364.123	0.459732
3	0	364.623	0.459746
3	0	365.123	0.459761
3	0	365.623	0.45977
3	0	366.123	0.459777
3	0	366.623	0.459783
3	0	367.123	0.45979
3	0	367.623	0.459799
3	0	368.123	0.459806
3	0	368.623	0.459811
3	0	369.123	0.459818
3	0	369.623	0.45982
3	0	370.123	0.459828
3	0	370.623	0.459831
3	0	371.123	0.459829
3	0	371.623	0.459832
3	0	372.123	0.459833
3	0	372.623	0.459837
3	0	373.123	0.459841
3	0	373.623	0.459846
3	0	374.123	0.45985
3	0	374.623	0.459848
3	0	375.123	0.459849
3	0	375.623	0.459849
3	0	376.123	0.459853
3	0	376.623	0.459857
3	0	377.123	0.459857
3	0	377.623	0.459859
3	0	378.123	0.459859
3	0	378.623	0.459859
3	0	379.123	0.459861
3	0	379.623	0.459863
3	0	380.123	0.459866
3	0	380.623	0.459868
3	0	381.123	0.459868
3	0	381.623	0.459871
3	0	382.123	0.459875
3	0	382.623	0.459878
3	0	383.123	0.459877
3	0	383.623	0.459875
3	0	384.123	0.459875
3	0	384.623	0.45988
3	0	385.123	0.459879
3	0	385.623	0.459881
3	0	386.123	0.45988
3	0	386.623	0.459884
3	0	387.123	0.459882
3	0	387.623	0.459883
3	0	388.123	0.459885
3	0	388.623	0.459884
3	0	389.123	0.459885
3	0	389.623	0.459881
3	0	390.123	0.459881
3	0	390.623	0.459881
3	0	391.123	0.45988
3	0	391.623	0.459881
3	0	392.123	0.45988
3	0	392.623	0.459883
3	0	393.123	0.459881
3	0	393.623	0.459881
3	0	394.123	0.45988
3	0	394.623	0.459884
3	0	395.123	0.459884
3	0	395.623	0.45988
3	0	396.123	0.459882
3	0	396.623	0.459882
3	0	397.123	0.459886
3	0	397.623	0.459886
3	0	398.123	0.459888
3	0	398.623	0.459891
3	0	399.123	0.459889
3	0	399.623	0.459888
3	0	400.123	0.45989
3	0	400.623	0.459889
3	0	401.123	0.45989
3	0	401.623	0.459893
3	0	402.123	0.459892
3	0	402.623	0.459888
3	0	403.123	0.459888
3	0	403.623	0.45989
3	0	404.123	0.459889
3	0	404.623	0.45989
3	0	405.123	0.459891
3	0	405.623	0.459891
3	0	406.123	0.45989
3	0	406.623	0.459891
3	0	407.123	0.459892
3	0	407.623	0.459893
3	0	408.123	0.45989
3	0	408.623	0.45989
3	0	409.123	0.459888
3	0	409.623	0.45989
3	0	410.123	0.459889
3	0	410.623	0.45989
3	0	411.123	0.45989
3	0	411.623	0.459888
3	0	412.123	0.459886
3	0	412.623	0.459887
3	0	413.123	0.459885
3	0	413.623	0.459886
3	0	414.123	0.459888
3	0	414.623	0.459889
3	0	415.123	0.459887
3	0	415.623	0.459887
3	0	416.123	0.459887
3	0	416.623	0.459884
3	0	416.673	0.459889