Folder: Thesis/Python/Data/RDE (part 3)

File: 240219-CV-EIS-Fe2Fe3_5mM-HCl1M-624RPM-Ag_AgCl_BLF8-GC-RDE_01_CV_C15.mpt
EC-Lab ASCII FILE
Nb header lines : 60

Cyclic Voltammetry

Run on channel : 15 (SN 19485)
User :
Electrode connection : standard
Potential control : Ewe
Ewe ctrl range : min = -1.00 V, max = 1.00 V
Ewe,I filtering : <None>
Safety Limits :
	Do not start on E overload
Channel : Floating
Acquisition started on : 02/19/2024 16:22:26.579
Loaded Setting File :  C:\Data\mathias\RDE-RPM-variation\240219-CV-EIS-Fe2Fe3_5mM-HCl1M-RPMtest-Ag_AgCl_BLF8-GC-RDE.mps
Saved on :
	File : 240219-CV-EIS-Fe2Fe3_5mM-HCl1M-624RPM-Ag_AgCl_BLF8-GC-RDE_01_CV_C15.mpr
	Directory : C:\Data\mathias\RDE-RPM-variation\
	Host : 192.168.0.1
Device : VMP-300 (SN 0826)
Address : USB
EC-Lab for windows v11.52 (software)
Internet server v11.52 (firmware)
Command interpretor v11.52 (firmware)
Electrode material :
Initial state :
Electrolyte :
Comments :
Cable : special
Electrode surface area : 0.001 cm²
Characteristic mass : 0.001 g
Equivalent Weight : 0.000 g/eq.
Density : 0.000 g/cm3
Volume (V) : 0.001 cm³
Record EIS quality indicators
Cycle Definition : Charge/Discharge alternance
Ei (V)              0.000
vs.                 Eoc
dE/dt               20.000
dE/dt unit          mV/s
E1 (V)              1.000
vs.                 Ref
Step percent        50
N                   10
E range min (V)     -1.000
E range max (V)     1.000
I Range             Auto
I Range min         Unset
I Range max         Unset
I Range init        Unset
Bandwidth           8
E2 (V)              0.000
vs.                 Ref
nc cycles           2
Reverse Scan        1
Ef (V)              0.000
vs.                 Eoc

mode	ox/red	error	control changes	counter inc.	time/s	control/V	Ewe/V	<I>/mA	cycle number	(Q-Qo)/C	I Range	step time/s	P/W
2	1	0	0	0	0.000000000000000E+000	0.46309	0.462623	0.000428459	1	0.0000000E+000	43	0.000000000000000E+000	1.98215e-07
2	1	0	1	0	2.4976	0.513041	0.513004	0.0117838	1	1.48297e-05	41	2.4838	6.04511e-06
2	1	0	1	0	4.9465	0.562017	0.561705	0.0295837	1	6.37174e-05	41	4.9327	1.66173e-05
2	1	0	1	0	7.3953	0.610994	0.610561	0.060674	1	0.000171296	41	7.3815	3.70452e-05
2	1	0	1	0	9.8441	0.659971	0.659694	0.105627	1	0.000373092	41	9.8303	6.96815e-05
2	1	0	1	0	12.323	0.709547	0.709199	0.157191	1	0.000698787	40	12.3092	0.000111479
2	1	0	1	0	14.7718	0.758524	0.758097	0.205156	1	0.00114379	40	14.758	0.000155528
2	1	0	1	0	17.2206	0.807501	0.807241	0.245224	1	0.0016989	40	17.2068	0.000197955
2	1	0	1	0	19.6695	0.856477	0.856136	0.276275	1	0.00233889	40	19.6557	0.000236529
2	1	0	1	0	22.1183	0.905454	0.905143	0.293645	1	0.00303819	40	22.1045	0.00026579
2	1	0	1	0	24.5671	0.954431	0.954108	0.305417	1	0.0037735	40	24.5533	0.0002914
2	1	0	1	0	26.9842	0.99721	0.996888	0.312149	1	0.00452102	40	26.9704	0.000311177
2	1	0	1	0	29.433	0.948234	0.94777	0.302869	1	0.0052729	40	29.4192	0.00028705
2	1	0	1	0	31.8818	0.899257	0.898897	0.288174	1	0.00599455	40	31.868	0.000259039
2	1	0	1	0	34.3307	0.85028	0.850027	0.263012	1	0.00667132	40	34.3169	0.000223568
2	1	0	1	0	36.7795	0.801304	0.800914	0.23305	1	0.00728267	40	36.7657	0.000186653
2	1	0	1	0	39.2284	0.752326	0.751908	0.189315	1	0.00780079	40	39.2146	0.000142347
2	1	0	1	0	41.6772	0.70335	0.70316	0.140715	1	0.00820529	40	41.6634	9.89449e-05
2	1	0	1	0	44.126	0.654373	0.653947	0.093054	1	0.00849077	40	44.1122	6.08524e-05
2	1	0	1	0	46.5749	0.605397	0.605152	0.0520365	1	0.00866546	40	46.5611	3.149e-05
2	1	0	1	0	49.0537	0.55582	0.555441	0.0246873	1	0.00875729	41	49.0399	1.37123e-05
2	1	0	1	0	51.5025	0.506844	0.506682	0.00894326	1	0.00879655	41	51.4887	4.53139e-06
2	0	0	1	0	54.0413	0.456068	0.455973	-0.00231873	1	0.00880439	42	0.5297	-1.05728e-06
2	0	0	1	0	56.5201	0.406491	0.40624	-0.0144023	1	0.00878454	41	3.0085	-5.8508e-06
2	0	0	1	0	58.969	0.357515	0.357523	-0.0347113	1	0.00872667	41	5.4574	-1.24101e-05
2	0	0	1	0	61.4178	0.308538	0.30823	-0.0702271	1	0.00860163	41	7.9062	-2.16461e-05
2	0	0	1	0	63.8966	0.258962	0.258617	-0.121977	1	0.00836563	40	10.385	-3.15454e-05
2	0	0	1	0	66.3455	0.209985	0.20966	-0.177553	1	0.00799738	40	12.8339	-3.72259e-05
2	0	0	1	0	68.7943	0.161008	0.160844	-0.222293	1	0.00750377	40	15.2827	-3.57545e-05
2	0	0	1	0	71.2431	0.112031	0.11181	-0.252607	1	0.00691615	40	17.7315	-2.82441e-05
2	0	0	1	0	73.692	0.0630547	0.062586	-0.271827	1	0.00626985	40	20.1804	-1.70125e-05
2	0	0	1	0	76.1408	0.014078	0.0136913	-0.283611	1	0.00558809	40	22.6292	-3.883e-06
2	0	0	1	1	78.5578	0.0342684	0.0342185	-0.273888	1	0.00490686	40	25.0462	-9.37202e-06
2	0	0	1	1	81.0066	0.0832442	0.0828871	-0.261156	1	0.00424788	40	27.495	-2.16465e-05
2	0	0	1	1	83.4555	0.132222	0.132007	-0.236011	1	0.00363393	40	29.9439	-3.1155e-05
2	0	0	1	1	85.9043	0.181198	0.180933	-0.201129	1	0.00309772	40	32.3927	-3.63909e-05
2	0	0	1	1	88.3532	0.230175	0.229953	-0.150587	1	0.00266782	40	34.8416	-3.46279e-05
2	0	0	1	1	90.802	0.279152	0.279055	-0.0968913	1	0.00236598	40	37.2904	-2.7038e-05
2	0	0	1	1	93.2508	0.328129	0.327688	-0.0527344	1	0.00218616	40	39.7392	-1.72805e-05
2	0	0	1	1	95.7296	0.377704	0.377425	-0.0238206	1	0.00209456	41	42.218	-8.99051e-06
2	0	0	1	1	98.1785	0.426682	0.426406	-0.00734726	1	0.00205835	41	44.6669	-3.13291e-06
2	1	0	1	1	100.687	0.476858	0.476423	0.00432894	2	0.00205498	42	0.9246	2.06241e-06
2	1	0	1	1	103.166	0.526434	0.526074	0.0176074	2	0.00208118	41	3.4034	9.26281e-06
2	1	0	1	1	105.615	0.575412	0.57497	0.0394469	2	0.00214877	41	5.8523	2.26808e-05
2	1	0	1	1	108.064	0.624388	0.623932	0.0757126	2	0.00228674	41	8.3011	4.72395e-05
2	1	0	1	1	110.543	0.673964	0.673464	0.124447	2	0.00253417	40	10.7799	8.38107e-05
2	1	0	1	1	112.991	0.722941	0.722875	0.175405	2	0.00290259	40	13.2287	0.000126796
2	1	0	1	1	115.44	0.771918	0.771557	0.221868	2	0.00339022	40	15.6776	0.000171184
2	1	0	1	1	117.889	0.820894	0.820658	0.257973	2	0.00397988	40	18.1264	0.000211707
2	1	0	1	1	120.338	0.869872	0.869599	0.282261	2	0.0046405	40	20.5753	0.000245454
2	1	0	1	1	122.787	0.918848	0.918657	0.298273	2	0.00535298	40	23.0241	0.00027401
2	1	0	1	1	125.236	0.967824	0.967505	0.308628	2	0.00609864	40	25.4729	0.000298599
2	1	0	1	1	127.658	0.983717	0.983321	0.306221	2	0.00685227	40	27.895	0.000301113
2	1	0	1	1	130.106	0.93474	0.934545	0.299139	2	0.00759301	40	30.3438	0.000279559
2	1	0	1	1	132.555	0.885763	0.885403	0.282393	2	0.00830712	40	32.7926	0.000250032
2	1	0	1	1	135.004	0.836787	0.836437	0.258031	2	0.00897051	40	35.2415	0.000215826
2	1	0	1	1	137.453	0.78781	0.787431	0.222546	2	0.00956003	40	37.6903	0.000175239
2	1	0	1	1	139.902	0.738833	0.738472	0.176351	2	0.0100505	40	40.1391	0.000130231
2	1	0	1	1	142.351	0.689857	0.689566	0.127964	2	0.0104244	40	42.588	8.82397e-05
2	1	0	1	1	144.799	0.64088	0.640543	0.0812596	2	0.0106799	40	45.0368	5.20503e-05
2	1	0	1	1	147.278	0.591303	0.591054	0.0433227	2	0.0108313	41	47.5156	2.56061e-05
2	1	0	1	1	149.727	0.542327	0.542139	0.0197671	2	0.0109056	41	49.9645	1.07165e-05
2	1	0	1	1	152.176	0.49335	0.493021	0.00583093	2	0.0109354	41	52.4133	2.87477e-06
2	0	0	1	1	154.715	0.442574	0.442423	-0.00530604	2	0.0109359	42	1.1894	-2.34751e-06
2	0	0	1	1	157.194	0.392998	0.392806	-0.0191304	2	0.0109069	41	3.6682	-7.51453e-06
2	0	0	1	1	159.642	0.344022	0.34386	-0.043416	2	0.0108331	41	6.117	-1.4929e-05
2	0	0	1	1	162.091	0.295044	0.29466	-0.0839484	2	0.0106806	41	8.5659	-2.47363e-05
2	0	0	1	1	164.57	0.245468	0.245334	-0.13852	2	0.010406	40	11.0447	-3.39836e-05
[...]
2	0	0	1	0	196.403	0.391199	0.391129	-0.0185291	2	0.00418775	41	42.8777	-7.24726e-06
2	0	0	1	0	198.882	0.440776	0.440617	-0.00385913	2	0.00416149	42	45.3566	-1.7004e-06
2	1	0	1	0	201.306	0.489252	0.489109	0.00730923	3	0.00416563	42	1.5742	3.57501e-06
2	1	0	1	0	203.785	0.538828	0.538606	0.0222438	3	0.00420094	41	4.053	1.19806e-05
2	1	0	1	0	206.233	0.587803	0.587422	0.0474589	3	0.00428375	41	6.5018	2.78784e-05
2	1	0	1	0	208.682	0.636782	0.636542	0.0879065	3	0.00444661	41	8.9507	5.59561e-05
2	1	0	1	0	211.161	0.686358	0.68631	0.137998	3	0.00472613	40	11.4295	9.47094e-05
2	1	0	1	0	213.61	0.735337	0.735086	0.187181	3	0.00512537	40	13.8784	0.000137594
2	1	0	1	0	216.059	0.784312	0.783964	0.231828	3	0.00564039	40	16.3272	0.000181744
2	1	0	1	0	218.508	0.833288	0.832903	0.264845	3	0.00625066	40	18.776	0.000220591
2	1	0	1	0	220.956	0.882263	0.882275	0.285684	3	0.00692805	40	21.2248	0.000252052
2	1	0	1	0	223.405	0.931242	0.930995	0.298443	3	0.00764877	40	23.6737	0.000277849
2	1	0	1	0	225.854	0.980219	0.979765	0.313566	3	0.00840037	40	26.1225	0.00030722
2	1	0	1	0	228.281	0.971223	0.971071	0.30447	3	0.00915412	40	28.5496	0.000295662
2	1	0	1	0	230.73	0.922246	0.921975	0.295957	3	0.00989245	40	30.9984	0.000272865
2	1	0	1	0	233.179	0.873269	0.873086	0.277837	3	0.0105918	40	33.4472	0.000242575
2	1	0	1	0	235.628	0.824293	0.823977	0.249205	3	0.0112411	40	35.8961	0.000205339
2	1	0	1	0	238.076	0.775316	0.775089	0.212081	3	0.0118073	40	38.3449	0.000164382
2	1	0	1	0	240.525	0.726339	0.725988	0.165485	3	0.0122681	40	40.7937	0.00012014
2	1	0	1	0	242.974	0.677363	0.677167	0.115989	3	0.0126116	40	43.2426	7.85442e-05
2	1	0	1	0	245.423	0.628386	0.62829	0.0703595	3	0.012838	40	45.6914	4.42062e-05
2	1	0	1	0	247.902	0.578809	0.578406	0.0361701	3	0.0129669	41	48.1702	2.0921e-05
2	1	0	1	0	250.351	0.529833	0.529569	0.0156493	3	0.0130278	41	50.6191	8.28736e-06
2	1	0	1	0	252.829	0.480256	0.479982	0.0028147	3	0.0130495	42	53.0979	1.35101e-06
2	0	0	1	0	255.338	0.43008	0.429973	-0.00827017	3	0.0130429	42	1.8041	-3.55595e-06
2	0	0	1	0	257.817	0.380504	0.380222	-0.0241339	3	0.0130045	41	4.2829	-9.17627e-06
2	0	0	1	0	260.266	0.331527	0.331677	-0.0522525	3	0.012914	41	6.7318	-1.73309e-05
2	0	0	1	0	262.715	0.28255	0.282278	-0.0971828	3	0.0127343	41	9.1806	-2.74326e-05
2	0	0	1	0	265.194	0.232974	0.232449	-0.153304	3	0.0124244	40	11.6594	-3.56354e-05
2	0	0	1	0	267.642	0.183997	0.183791	-0.20394	3	0.0119839	40	14.1082	-3.74823e-05
2	0	0	1	0	270.091	0.13502	0.134831	-0.242444	3	0.0114331	40	16.5571	-3.26891e-05
2	0	0	1	0	272.54	0.0860438	0.0855559	-0.267206	3	0.0108089	40	19.0059	-2.2861e-05
2	0	0	1	0	274.989	0.0370666	0.0368011	-0.280348	3	0.010137	40	21.4548	-1.03171e-05
2	0	0	1	1	277.406	0.0112793	0.0111662	-0.281662	3	0.0094515	40	23.8718	-3.1451e-06
2	0	0	1	1	279.855	0.060256	0.06004	-0.272246	3	0.00877362	40	26.3206	-1.63457e-05
2	0	0	1	1	282.304	0.109233	0.108918	-0.250022	3	0.00813414	40	28.7694	-2.72319e-05
2	0	0	1	1	284.752	0.158209	0.157915	-0.221186	3	0.00755484	40	31.2183	-3.49286e-05
2	0	0	1	1	287.201	0.207186	0.206949	-0.175561	3	0.00706716	40	33.6671	-3.63323e-05
2	0	0	1	1	289.65	0.256163	0.255856	-0.122531	3	0.00670132	40	36.1159	-3.13503e-05
2	0	0	1	1	292.099	0.30514	0.304891	-0.0724028	3	0.00646481	40	38.5648	-2.2075e-05
2	0	0	1	1	294.578	0.354716	0.354547	-0.0358811	3	0.00633419	41	41.0436	-1.27215e-05
2	0	0	1	1	297.027	0.403693	0.403327	-0.0141801	3	0.00627551	41	43.4924	-5.71921e-06
2	0	0	1	1	299.505	0.453267	0.453025	-0.000960034	3	0.00625784	42	45.9712	-4.34919e-07
2	1	0	1	1	299.939	0.46194	0.461508	0.00103771	3	0.00625785	42	0.2037	4.78912e-07

File: 240219-CV-EIS-Fe2Fe3_5mM-HCl1M-624RPM-Ag_AgCl_BLF8-GC-RDE_03_PEIS_C15.mpt
EC-Lab ASCII FILE
Nb header lines : 66

Potentio Electrochemical Impedance Spectroscopy

Run on channel : 15 (SN 19485)
User :
Electrode connection : standard
Potential control : Ewe
Ewe ctrl range : min = -1.00 V, max = 1.00 V
Ewe,I filtering : <None>
Safety Limits :
	Do not start on E overload
Channel : Floating
Acquisition started on : 02/19/2024 16:22:26.579
Loaded Setting File :  C:\Data\mathias\RDE-RPM-variation\240219-CV-EIS-Fe2Fe3_5mM-HCl1M-RPMtest-Ag_AgCl_BLF8-GC-RDE.mps
Saved on :
	File : 240219-CV-EIS-Fe2Fe3_5mM-HCl1M-624RPM-Ag_AgCl_BLF8-GC-RDE_03_PEIS_C15.mpr
	Directory : C:\Data\mathias\RDE-RPM-variation\
	Host : 192.168.0.1
Device : VMP-300 (SN 0826)
Address : USB
EC-Lab for windows v11.52 (software)
Internet server v11.52 (firmware)
Command interpretor v11.52 (firmware)
Electrode material :
Initial state :
Electrolyte :
Comments :
Cable : special
Electrode surface area : 0.001 cm²
Characteristic mass : 0.001 g
Equivalent Weight : 0.000 g/eq.
Density : 0.000 g/cm3
Volume (V) : 0.001 cm³
Record EIS quality indicators
Cycle Definition : Charge/Discharge alternance
Mode                Single sine
E (V)               0.0000
vs.                 Ref
tE (h:m:s)          0:00:0.0000
record              0
dI                  0.000
unit dI             mA
dt (s)              0.000
fi                  400.000
unit fi             kHz
ff                  100.000
unit ff             mHz
Nd                  10
Points              per decade
spacing             Logarithmic
Va (mV)             7.0
pw                  0.10
Na                  3
corr                0
E range min (V)     -1.000
E range max (V)     1.000
I Range             Auto
Bandwidth           8
nc cycles           2
goto Ns'            0
nr cycles           0
inc. cycle          1

freq/Hz	Re(Z)/Ohm	-Im(Z)/Ohm	|Z|/Ohm	Phase(Z)/deg	time/s	<Ewe>/V	<I>/mA	Cs/µF	Cp/µF	cycle number	I Range	|Ewe|/V	|I|/A	Ns	(Q-Qo)/mA.h	THD Ewe/%	NSD Ewe/%	NSR Ewe/%	|Ewe h2|/V	|Ewe h3|/V	|Ewe h4|/V	|Ewe h5|/V	|Ewe h6|/V	|Ewe h7|/V	THD I/%	NSD I/%	NSR I/%	|I h2|/A	|I h3|/A	|I h4|/A	|I h5|/A	|I h6|/A	|I h7|/A	Re(Y)/Ohm-1	Im(Y)/Ohm-1	|Y|/Ohm-1	Phase(Y)/deg	Re(C)/nF	Im(C)/nF	|C|/nF	Phase(C)/deg	Re(M)	Im(M)	|M|	Phase(M)/deg	Re(Permittivity)	Im(Permittivity)	|Permittivity|	Phase(Permittivity)/deg	Re(Resistivity)/Ohm.cm	Im(Resistivity)/Ohm.cm	|Resistivity|/Ohm.cm	Phase(Resistivity)/deg	Re(Conductivity)/mS/cm	Im(Conductivity)/mS/cm	|Conductivity|/mS/cm	Phase(Conductivity)/deg	Tan(Delta)	Loss Angle(Delta)/deg	dq/mA.h
399996	3.73305	1.30352	3.95409	-19.2484	362.417	-0.000102642	-0.296992	0.305243	0.0331734	1	38	0.00646303	0.00163452	0	-0.000188872	-1	-1	-1	0	0	0	0	0	0	-1	-1	-1	0	0	0	0	0	0	0.238765	0.0833731	0.252903	19.2484	33.1734	95.0024	100.628	-70.7516	0.0000000E+000	0.0000000E+000	0.0000000E+000	70.7516	0.0000000E+000	0.0000000E+000	0.0000000E+000	-70.7516	0.0000000E+000	0.0000000E+000	0.0000000E+000	-19.2484	0.0000000E+000	0.0000000E+000	0.0000000E+000	19.2484	2.86381	70.7516	-0.000188872
20032.3	3.88856	2.32814	4.53223	-30.9096	377.328	-0.000117424	-0.290801	3.41257	0.900481	1	38	0.00730386	0.00161154	0	-0.00140028	0.713887	0.641731	14.1512	1.77135e-05	2.46134e-05	1.88988e-05	1.01056e-05	2.22648e-05	1.53878e-05	0.12349	0.0669017	1.78638	9.24847e-07	7.97217e-07	5.79142e-07	6.22014e-07	5.91535e-07	1.09101e-06	0.189306	0.11334	0.220642	30.9096	900.481	1504.02	1752.98	-59.0904	0.0000000E+000	0.0000000E+000	0.0000000E+000	59.0904	0.0000000E+000	0.0000000E+000	0.0000000E+000	-59.0904	0.0000000E+000	0.0000000E+000	0.0000000E+000	-30.9096	0.0000000E+000	0.0000000E+000	0.0000000E+000	30.9096	1.67024	59.0904	-9.22427e-05
1002.75	12.5262	30.0543	32.5602	-67.3743	392.524	-0.000225428	-0.285472	5.28105	4.49944	1	39	0.00725675	0.000222871	0	-0.00260417	0.925083	0.579035	14.5594	1.81931e-05	2.15217e-05	3.41666e-05	3.189e-05	2.50276e-05	1.71122e-05	0.648265	0.23457	5.79469	1.03573e-06	7.56292e-07	3.55464e-07	3.31681e-07	2.82142e-07	2.24883e-07	0.0118153	0.0283486	0.0307123	67.3743	4499.44	1875.31	4874.6	-22.6257	0.0000000E+000	0.0000000E+000	0.0000000E+000	22.6257	0.0000000E+000	0.0000000E+000	0.0000000E+000	-22.6257	0.0000000E+000	0.0000000E+000	0.0000000E+000	-67.3743	0.0000000E+000	0.0000000E+000	0.0000000E+000	67.3743	0.416786	22.6257	-0.000105141
50.2089	150.966	256.56	297.681	-59.5264	407.065	-0.00021965	-0.28397	12.3552	9.17755	1	40	0.00648505	2.17852e-05	0	-0.00373909	1.73207	0.971051	30.464	3.46348e-05	2.4431e-05	3.28748e-05	2.89413e-05	4.42269e-05	7.72564e-05	0.634537	0.402507	12.0943	4.63466e-08	2.99121e-08	4.47236e-08	4.27505e-08	4.6115e-08	9.62154e-08	0.00170364	0.00289526	0.0033593	59.5264	9177.55	5400.3	10648.5	-30.4736	0.0000000E+000	0.0000000E+000	0.0000000E+000	30.4736	0.0000000E+000	0.0000000E+000	0.0000000E+000	-30.4736	0.0000000E+000	0.0000000E+000	0.0000000E+000	-59.5264	0.0000000E+000	0.0000000E+000	0.0000000E+000	59.5264	0.588424	30.4736	-8.34805e-05
2.51368	1174.59	1535.97	1933.61	-52.5942	425.812	-0.000189963	-0.284585	41.2219	26.0108	1	40	0.00644212	3.33165e-06	0	-0.00520708	0.571452	0.311646	11.9884	1.54804e-05	1.4224e-05	1.61238e-05	9.70294e-06	8.37616e-06	1.43362e-05	8.166	26.5133	32.307	2.23611e-07	1.01521e-07	7.82233e-08	5.78579e-08	4.73239e-08	3.18722e-08	0.000314156	0.000410813	0.000517167	52.5942	26010.8	19891	32744.7	-37.4058	0.0000000E+000	0.0000000E+000	0.0000000E+000	37.4058	0.0000000E+000	0.0000000E+000	0.0000000E+000	-37.4058	0.0000000E+000	0.0000000E+000	0.0000000E+000	-52.5942	0.0000000E+000	0.0000000E+000	0.0000000E+000	52.5942	0.764719	37.4058	-0.000220144
0.125939	6474.69	1160.8	6577.92	-10.1641	654.053	-0.00023043	-0.282937	1088.69	33.9032	1	40	0.0064319	9.77802e-07	0	-0.0231454	0.186034	0.125333	2.53579	2.74088e-06	6.51324e-06	1.40242e-06	5.38944e-06	3.333e-06	5.83949e-06	104.276	47.6722	139.397	4.12143e-07	4.17534e-07	4.51185e-07	4.54955e-07	2.58773e-07	1.73061e-07	0.000149638	2.68274e-05	0.000152024	10.1641	33903.2	189105	192120	-79.8359	0.0000000E+000	0.0000000E+000	0.0000000E+000	79.8359	0.0000000E+000	0.0000000E+000	0.0000000E+000	-79.8359	0.0000000E+000	0.0000000E+000	0.0000000E+000	-10.1641	0.0000000E+000	0.0000000E+000	0.0000000E+000	10.1641	5.57779	79.8359	-0.00383191
31751	3.73904	1.69981	4.10728	-24.447	730.313	-0.000126837	-0.283854	2.94892	0.505071	2	38	0.00727719	0.00177178	0	-0.0291441	0.818624	0.463565	13.9303	3.24385e-05	2.27622e-05	2.06072e-05	1.30061e-05	2.12336e-05	1.95921e-05	0.0942605	0.112518	1.60741	4.96957e-07	7.12085e-07	6.95777e-07	4.39414e-07	9.37362e-07	5.58159e-07	0.221641	0.10076	0.24347	24.447	505.071	1111	1220.41	-65.553	0.0000000E+000	0.0000000E+000	0.0000000E+000	65.553	0.0000000E+000	0.0000000E+000	0.0000000E+000	-65.553	0.0000000E+000	0.0000000E+000	0.0000000E+000	-24.447	0.0000000E+000	0.0000000E+000	0.0000000E+000	24.447	2.19969	65.553	-8.85368e-05
[...]
2519.19	7.21234	15.1016	16.7355	-64.4714	1097.81	-0.000260696	-0.281678	4.18347	3.40648	3	38	0.00673841	0.000402642	0	-0.0578536	0.895646	0.616906	14.9927	1.73168e-05	3.2623e-05	1.04209e-05	2.28397e-05	2.38098e-05	2.98811e-05	0.683719	0.148413	7.04161	1.62223e-06	1.56758e-06	5.9499e-07	6.09562e-07	9.0678e-07	6.67009e-07	0.0257514	0.0539196	0.0597533	64.4714	3406.48	1626.9	3775.04	-25.5286	0.0000000E+000	0.0000000E+000	0.0000000E+000	25.5286	0.0000000E+000	0.0000000E+000	0.0000000E+000	-25.5286	0.0000000E+000	0.0000000E+000	0.0000000E+000	-64.4714	0.0000000E+000	0.0000000E+000	0.0000000E+000	64.4714	0.477588	25.5286	-8.64985e-05
126.171	77.0023	144.162	163.438	-61.8916	1112.66	-0.000254228	-0.281477	8.75005	6.80777	3	39	0.00690482	4.22474e-05	0	-0.0590044	0.755563	0.3821	15.1307	2.09516e-05	1.99023e-05	1.31069e-05	2.32794e-05	1.54686e-05	2.3016e-05	1.96386	0.941462	31.0142	4.36803e-07	4.15676e-07	1.2654e-07	3.80876e-07	1.94352e-07	2.31103e-07	0.0028827	0.0053969	0.00611854	61.8916	6807.77	3636.29	7718.05	-28.1084	0.0000000E+000	0.0000000E+000	0.0000000E+000	28.1084	0.0000000E+000	0.0000000E+000	0.0000000E+000	-28.1084	0.0000000E+000	0.0000000E+000	0.0000000E+000	-61.8916	0.0000000E+000	0.0000000E+000	0.0000000E+000	61.8916	0.534139	28.1084	-0.0001024
6.31569	664.05	737.674	992.534	-48.0066	1127.35	-0.000223079	-0.282483	34.1614	18.87	3	40	0.006909	6.96097e-06	0	-0.0601384	1.03031	0.467915	20.2478	3.66434e-05	1.15892e-05	2.11708e-05	3.66221e-05	2.52743e-05	2.8695e-05	1.56655	4.72302	26.6384	4.82773e-08	3.97227e-08	3.2982e-08	6.238e-08	1.60132e-08	3.46506e-08	0.000674077	0.000748813	0.00100752	48.0066	18870	16986.7	25389.5	-41.9934	0.0000000E+000	0.0000000E+000	0.0000000E+000	41.9934	0.0000000E+000	0.0000000E+000	0.0000000E+000	-41.9934	0.0000000E+000	0.0000000E+000	0.0000000E+000	-48.0066	0.0000000E+000	0.0000000E+000	0.0000000E+000	48.0066	0.900194	41.9934	-0.000107007
0.316193	3029.17	3847.22	4896.63	-51.7842	1221.05	-0.000230575	-0.280562	130.834	80.7644	3	40	0.0068934	1.40778e-06	0	-0.0674413	0.21324	0.106576	3.90806	4.4366e-06	7.43777e-06	4.97048e-06	6.18663e-06	3.30217e-06	6.0282e-06	51.5132	87.8625	77.1553	2.91192e-07	2.10662e-07	4.3339e-07	2.41773e-07	2.0891e-07	9.64528e-08	0.000126337	0.000160455	0.000204222	51.7842	80764.4	63591.3	102795	-38.2158	0.0000000E+000	0.0000000E+000	0.0000000E+000	38.2158	0.0000000E+000	0.0000000E+000	0.0000000E+000	-38.2158	0.0000000E+000	0.0000000E+000	0.0000000E+000	-51.7842	0.0000000E+000	0.0000000E+000	0.0000000E+000	51.7842	0.787368	38.2158	-0.00152996
0.0999518	5327.21	702.138	5373.29	-7.50843	1425.63	-0.000216904	-0.279983	2267.81	38.7233	3	40	0.00689183	1.28261e-06	0	-0.0833621	0.15489	0.0767053	2.34923	1.39798e-06	6.03621e-06	3.15197e-06	5.70538e-06	3.06563e-06	3.07947e-06	82.7324	41.0405	101.56	4.55337e-07	4.74535e-07	3.11312e-07	4.92106e-07	3.19323e-07	2.22956e-07	0.00018451	2.43188e-05	0.000186106	7.50843	38723.3	293799	296340	-82.4916	0.0000000E+000	0.0000000E+000	0.0000000E+000	82.4916	0.0000000E+000	0.0000000E+000	0.0000000E+000	-82.4916	0.0000000E+000	0.0000000E+000	0.0000000E+000	-7.50843	0.0000000E+000	0.0000000E+000	0.0000000E+000	7.50843	7.58713	82.4916	-0.00477527