Folder: Thesis/Python/Data/RDE (part 6)

File: 240219-EIS-Fe2Fe3_5mM-HCl1M-226RPM-Ag_AgCl_BLF8-GC-RDE_C15.mpt
EC-Lab ASCII FILE
Nb header lines : 66

Potentio Electrochemical Impedance Spectroscopy

Run on channel : 15 (SN 19485)
User :
Electrode connection : standard
Potential control : Ewe
Ewe ctrl range : min = -1.00 V, max = 1.00 V
Ewe,I filtering : <None>
Safety Limits :
	Do not start on E overload
Channel : Floating
Acquisition started on : 02/19/2024 15:59:30.354
Loaded Setting File :  NONE
Saved on :
	File : 240219-EIS-Fe2Fe3_5mM-HCl1M-226RPM-Ag_AgCl_BLF8-GC-RDE_C15.mpr
	Directory : C:\Data\mathias\RDE-RPM-variation\
	Host : 192.168.0.1
Device : VMP-300 (SN 0826)
Address : USB
EC-Lab for windows v11.52 (software)
Internet server v11.52 (firmware)
Command interpretor v11.52 (firmware)
Electrode material :
Initial state :
Electrolyte :
Comments :
Cable : special
Electrode surface area : 0.001 cm²
Characteristic mass : 0.001 g
Equivalent Weight : 0.000 g/eq.
Density : 0.000 g/cm3
Volume (V) : 0.001 cm³
Record EIS quality indicators
Cycle Definition : Charge/Discharge alternance
Mode                Single sine
E (V)               0.0000
vs.                 Ref
tE (h:m:s)          0:00:30.0000
record              0
dI                  0.000
unit dI             mA
dt (s)              0.000
fi                  400.000
unit fi             kHz
ff                  100.000
unit ff             mHz
Nd                  10
Points              per decade
spacing             Logarithmic
Va (mV)             7.0
pw                  0.10
Na                  3
corr                0
E range min (V)     -1.000
E range max (V)     1.000
I Range             Auto
Bandwidth           8
nc cycles           2
goto Ns'            0
nr cycles           0
inc. cycle          1

freq/Hz	Re(Z)/Ohm	-Im(Z)/Ohm	|Z|/Ohm	Phase(Z)/deg	time/s	<Ewe>/V	<I>/mA	Cs/µF	Cp/µF	cycle number	I Range	|Ewe|/V	|I|/A	Ns	(Q-Qo)/mA.h	THD Ewe/%	NSD Ewe/%	NSR Ewe/%	|Ewe h2|/V	|Ewe h3|/V	|Ewe h4|/V	|Ewe h5|/V	|Ewe h6|/V	|Ewe h7|/V	THD I/%	NSD I/%	NSR I/%	|I h2|/A	|I h3|/A	|I h4|/A	|I h5|/A	|I h6|/A	|I h7|/A	Re(Y)/Ohm-1	Im(Y)/Ohm-1	|Y|/Ohm-1	Phase(Y)/deg	Re(C)/nF	Im(C)/nF	|C|/nF	Phase(C)/deg	Re(M)	Im(M)	|M|	Phase(M)/deg	Re(Permittivity)	Im(Permittivity)	|Permittivity|	Phase(Permittivity)/deg	Re(Resistivity)/Ohm.cm	Im(Resistivity)/Ohm.cm	|Resistivity|/Ohm.cm	Phase(Resistivity)/deg	Re(Conductivity)/mS/cm	Im(Conductivity)/mS/cm	|Conductivity|/mS/cm	Phase(Conductivity)/deg	Tan(Delta)	Loss Angle(Delta)/deg	dq/mA.h
399996	3.73934	1.3024	3.95966	-19.2031	32.1955	-0.000136083	-0.178381	0.305506	0.0330517	1	38	0.00650287	0.00164228	0	-0.00156076	-1	-1	-1	0	0	0	0	0	0	-1	-1	-1	0	0	0	0	0	0	0.238495	0.0830671	0.252547	19.2031	33.0517	94.895	100.486	-70.7969	0.0000000E+000	0.0000000E+000	0.0000000E+000	70.7969	0.0000000E+000	0.0000000E+000	0.0000000E+000	-70.7969	0.0000000E+000	0.0000000E+000	0.0000000E+000	-19.2031	0.0000000E+000	0.0000000E+000	0.0000000E+000	19.2031	2.87111	70.7969	-0.00156076
20032.3	3.89616	2.45639	4.60586	-32.23	47.1085	-0.00012186	-0.178791	3.23439	0.919954	1	38	0.00730602	0.00158625	0	-0.00229506	0.731125	0.480871	14.2761	1.24522e-05	1.80116e-05	2.78166e-05	2.14743e-05	1.94857e-05	1.79518e-05	0.120022	0.240681	1.80445	6.71018e-07	1.02208e-06	5.39536e-07	9.2921e-07	4.20265e-07	7.04174e-07	0.183661	0.115791	0.217115	32.23	919.954	1459.17	1724.96	-57.77	0.0000000E+000	0.0000000E+000	0.0000000E+000	57.77	0.0000000E+000	0.0000000E+000	0.0000000E+000	-57.77	0.0000000E+000	0.0000000E+000	0.0000000E+000	-32.23	0.0000000E+000	0.0000000E+000	0.0000000E+000	32.23	1.58613	57.77	-5.79746e-05
1002.75	12.2964	33.1648	35.3709	-69.6569	62.3002	-0.000251805	-0.174568	4.78575	4.20737	1	39	0.00723281	0.000204484	0	-0.0030352	0.779603	0.500928	14.3516	1.85842e-05	2.47563e-05	1.58283e-05	2.96321e-05	1.49884e-05	1.75121e-05	0.662761	0.169424	6.42217	9.9802e-07	7.10884e-07	1.54477e-07	2.80176e-07	2.02591e-07	3.04539e-07	0.00982844	0.0265084	0.0282718	69.6569	4207.37	1559.95	4487.25	-20.3431	0.0000000E+000	0.0000000E+000	0.0000000E+000	20.3431	0.0000000E+000	0.0000000E+000	0.0000000E+000	-20.3431	0.0000000E+000	0.0000000E+000	0.0000000E+000	-69.6569	0.0000000E+000	0.0000000E+000	0.0000000E+000	69.6569	0.370767	20.3431	-6.44051e-05
50.2089	154.36	318.653	354.072	-64.1539	76.8409	-0.000188464	-0.173996	9.94767	8.05704	1	40	0.00644556	1.82041e-05	0	-0.00373011	1.89281	1.48826	31.9586	7.83851e-05	2.90344e-05	3.3227e-05	3.36862e-05	3.81506e-05	5.16166e-05	1.0631	0.716053	14.7218	1.217e-07	5.55584e-08	3.7655e-08	6.88318e-08	5.21219e-08	8.92982e-08	0.00123127	0.00254177	0.00282429	64.1539	8057.04	3902.93	8952.59	-25.8461	0.0000000E+000	0.0000000E+000	0.0000000E+000	25.8461	0.0000000E+000	0.0000000E+000	0.0000000E+000	-25.8461	0.0000000E+000	0.0000000E+000	0.0000000E+000	-64.1539	0.0000000E+000	0.0000000E+000	0.0000000E+000	64.1539	0.484413	25.8461	-5.10826e-05
2.51368	1435.91	1877.7	2363.81	-52.5942	95.5868	-0.000208742	-0.172711	33.7198	21.2771	1	40	0.00643503	2.72231e-06	0	-0.00462597	0.664084	0.310784	11.5492	1.69465e-05	2.27362e-05	1.81591e-05	1.51331e-05	1.06617e-05	1.2897e-05	3.06534	10.3137	37.0967	4.69075e-08	3.29481e-08	4.38559e-08	1.88422e-08	2.92468e-08	1.79138e-08	0.000256982	0.000336048	0.000423046	52.5942	21277.1	16271	26785.4	-37.4058	0.0000000E+000	0.0000000E+000	0.0000000E+000	37.4058	0.0000000E+000	0.0000000E+000	0.0000000E+000	-37.4058	0.0000000E+000	0.0000000E+000	0.0000000E+000	-52.5942	0.0000000E+000	0.0000000E+000	0.0000000E+000	52.5942	0.764719	37.4058	-0.000134271
0.125939	7847.92	2193.1	8148.59	-15.613	323.828	-0.000240367	-0.173614	576.24	41.7402	1	40	0.00643328	7.89497e-07	0	-0.0156083	0.210736	0.122532	2.5146	4.93606e-06	8.73235e-06	4.37666e-06	1.88977e-06	4.6668e-06	4.36266e-06	94.811	113.064	94.1754	3.77637e-07	2.40776e-07	3.21801e-07	2.75868e-07	2.09036e-07	5.10491e-08	0.000118192	3.30288e-05	0.000122721	15.613	41740.2	149366	155088	-74.387	0.0000000E+000	0.0000000E+000	0.0000000E+000	74.387	0.0000000E+000	0.0000000E+000	0.0000000E+000	-74.387	0.0000000E+000	0.0000000E+000	0.0000000E+000	-15.613	0.0000000E+000	0.0000000E+000	0.0000000E+000	15.613	3.57846	74.387	-0.00234671
31751	3.75908	1.72853	4.13745	-24.6943	400.09	-0.000108719	-0.173983	2.89992	0.506143	2	38	0.00724715	0.0017516	0	-0.0192769	0.668485	0.925132	14.706	1.94926e-05	2.09188e-05	2.22925e-05	1.57695e-05	1.61812e-05	1.38046e-05	0.0922756	0.155965	1.60189	5.41264e-07	6.15286e-07	6.58164e-07	7.51748e-07	4.20275e-07	5.07006e-07	0.219592	0.100974	0.241695	24.6943	506.143	1100.72	1211.52	-65.3057	0.0000000E+000	0.0000000E+000	0.0000000E+000	65.3057	0.0000000E+000	0.0000000E+000	0.0000000E+000	-65.3057	0.0000000E+000	0.0000000E+000	0.0000000E+000	-24.6943	0.0000000E+000	0.0000000E+000	0.0000000E+000	24.6943	2.17473	65.3057	-5.16494e-05
1589.49	9.11154	23.3513	25.066	-68.6846	415.109	-0.000272086	-0.176495	4.28796	3.72137	2	38	0.00647716	0.000258404	0	-0.0199957	0.793706	0.654337	16.6255	1.75813e-05	1.64361e-05	1.9481e-05	1.26149e-05	3.21208e-05	1.31395e-05	0.79646	0.2588	11.2755	8.26924e-07	8.29369e-07	5.35962e-07	1.13159e-06	7.40323e-07	5.26749e-07	0.0145018	0.0371656	0.0398947	68.6846	3721.38	1452.06	3994.63	-21.3154	0.0000000E+000	0.0000000E+000	0.0000000E+000	21.3154	0.0000000E+000	0.0000000E+000	0.0000000E+000	-21.3154	0.0000000E+000	0.0000000E+000	0.0000000E+000	-68.6846	0.0000000E+000	0.0000000E+000	0.0000000E+000	68.6846	0.390194	21.3154	-5.38067e-05
[...]
2519.19	6.95104	15.9504	17.3992	-66.4528	767.977	-0.000255272	-0.175674	3.96085	3.32869	3	38	0.00655323	0.00037664	0	-0.0369127	0.903471	0.535195	14.9962	2.74867e-05	3.6901e-05	1.32418e-05	1.69652e-05	1.88786e-05	1.71523e-05	0.590204	0.216829	7.45563	7.88623e-07	1.24402e-06	7.8874e-07	1.01304e-06	5.90865e-07	5.1819e-07	0.0229611	0.0526882	0.057474	66.4528	3328.69	1450.61	3631.04	-23.5472	0.0000000E+000	0.0000000E+000	0.0000000E+000	23.5472	0.0000000E+000	0.0000000E+000	0.0000000E+000	-23.5472	0.0000000E+000	0.0000000E+000	0.0000000E+000	-66.4528	0.0000000E+000	0.0000000E+000	0.0000000E+000	66.4528	0.435792	23.5472	-5.38111e-05
126.171	75.7675	172.191	188.123	-66.2495	782.829	-0.0002313	-0.173263	7.32573	6.13741	3	39	0.00690905	3.67262e-05	0	-0.0376222	0.627708	0.51996	14.86	1.67447e-05	1.3302e-05	1.24748e-05	2.55626e-05	1.18487e-05	1.69944e-05	1.47747	1.01325	34.1596	1.64383e-07	1.55949e-07	1.73766e-07	2.80879e-07	1.35451e-07	2.15338e-07	0.00214091	0.00486547	0.00531567	66.2495	6137.41	2700.59	6705.3	-23.7505	0.0000000E+000	0.0000000E+000	0.0000000E+000	23.7505	0.0000000E+000	0.0000000E+000	0.0000000E+000	-23.7505	0.0000000E+000	0.0000000E+000	0.0000000E+000	-66.2495	0.0000000E+000	0.0000000E+000	0.0000000E+000	66.2495	0.440022	23.7505	-5.2831e-05
6.31569	823.673	1109.08	1381.48	-53.4001	797.517	-0.000205548	-0.172315	22.7215	14.6444	3	40	0.00688989	4.98731e-06	0	-0.0383154	0.787802	0.345687	19.7321	2.39898e-05	2.33138e-05	1.5083e-05	1.40261e-05	2.07695e-05	2.43165e-05	1.86431	1.09248	36.8635	6.17217e-08	2.12583e-08	3.04699e-08	2.04391e-08	1.85272e-08	4.39014e-08	0.000431582	0.000581127	0.000723859	53.4001	14644.4	10875.8	18241.2	-36.5999	0.0000000E+000	0.0000000E+000	0.0000000E+000	36.5999	0.0000000E+000	0.0000000E+000	0.0000000E+000	-36.5999	0.0000000E+000	0.0000000E+000	0.0000000E+000	-53.4001	0.0000000E+000	0.0000000E+000	0.0000000E+000	53.4001	0.742663	36.5999	-6.53756e-05
0.316193	3176.97	4510.41	5516.97	-54.8406	891.218	-0.000207088	-0.172404	111.597	74.5904	3	40	0.00689428	1.24965e-06	0	-0.0428002	0.200858	0.151552	3.72083	6.03396e-06	9.14977e-06	2.65674e-06	3.49069e-06	3.74406e-06	5.25766e-06	27.9143	104.678	39.0954	2.06446e-07	1.23722e-07	1.13336e-07	4.45703e-08	7.06693e-08	2.73458e-08	0.000104379	0.000148189	0.000181259	54.8406	74590.4	52538.7	91236.3	-35.1594	0.0000000E+000	0.0000000E+000	0.0000000E+000	35.1594	0.0000000E+000	0.0000000E+000	0.0000000E+000	-35.1594	0.0000000E+000	0.0000000E+000	0.0000000E+000	-54.8406	0.0000000E+000	0.0000000E+000	0.0000000E+000	54.8406	0.704363	35.1595	-0.000938397
0.0999518	4514.62	2600.27	5209.92	-29.9405	1095.8	-0.000234197	-0.172686	612.366	152.541	3	40	0.00689483	1.3234e-06	0	-0.0526075	0.171847	0.10479	2.22461	3.84432e-06	6.2058e-06	4.4454e-06	5.3008e-06	3.13214e-06	3.33328e-06	68.5721	43.3809	53.4322	3.57721e-07	6.02582e-07	3.22461e-07	3.25889e-07	1.34391e-07	6.64242e-08	0.000166326	9.5798e-05	0.000191942	29.9405	152541	264844	305632	-60.0595	0.0000000E+000	0.0000000E+000	0.0000000E+000	60.0595	0.0000000E+000	0.0000000E+000	0.0000000E+000	-60.0595	0.0000000E+000	0.0000000E+000	0.0000000E+000	-29.9405	0.0000000E+000	0.0000000E+000	0.0000000E+000	29.9405	1.73621	60.0595	-0.00294162

File: 240222-CV-EIS-Fe2Fe3_5mM-HCl1M-0RPM-Ag_AgCl_BLF8-GC-RDE-DefaultSettings_01_CV_C15.mpt
EC-Lab ASCII FILE
Nb header lines : 60

Cyclic Voltammetry

Run on channel : 15 (SN 19485)
User :
Electrode connection : standard
Potential control : Ewe
Ewe ctrl range : min = -1.00 V, max = 1.00 V
Ewe,I filtering : <None>
Safety Limits :
	Do not start on E overload
Channel : Floating
Acquisition started on : 02/22/2024 14:35:39.248
Loaded Setting File :  C:\Data\mathias\RDE-RPM-variation\240219-CV-EIS-Fe2Fe3_5mM-HCl1M-RPMtest-Ag_AgCl_BLF8-GC-RDE.mps
Saved on :
	File : 240222-CV-EIS-Fe2Fe3_5mM-HCl1M-0RPM-Ag_AgCl_BLF8-GC-RDE-DefaultSettings_01_CV_C15.mpr
	Directory : C:\Data\mathias\RDE-RPM-variation\
	Host : 192.168.0.1
Device : VMP-300 (SN 0826)
Address : USB
EC-Lab for windows v11.52 (software)
Internet server v11.52 (firmware)
Command interpretor v11.52 (firmware)
Electrode material :
Initial state :
Electrolyte :
Comments :
Cable : special
Electrode surface area : 0.001 cm²
Characteristic mass : 0.001 g
Equivalent Weight : 0.000 g/eq.
Density : 0.000 g/cm3
Volume (V) : 0.001 cm³
Record EIS quality indicators
Cycle Definition : Charge/Discharge alternance
Ei (V)              0.000
vs.                 Eoc
dE/dt               20.000
dE/dt unit          mV/s
E1 (V)              1.000
vs.                 Ref
Step percent        50
N                   10
E range min (V)     -1.000
E range max (V)     1.000
I Range             Auto
I Range min         Unset
I Range max         Unset
I Range init        Unset
Bandwidth           8
E2 (V)              0.000
vs.                 Ref
nc cycles           2
Reverse Scan        1
Ef (V)              0.000
vs.                 Eoc

mode	ox/red	error	control changes	counter inc.	time/s	control/V	Ewe/V	<I>/mA	cycle number	(Q-Qo)/C	I Range	step time/s	P/W
2	1	1	0	0	0.000000000000000E+000	0.463489	0.463199	0.000412757	1	0.0000000E+000	43	0.000000000000000E+000	1.91189e-07
2	1	0	1	0	2.5476	0.51444	0.514024	0.0126387	1	1.61859e-05	41	2.5338	6.4966e-06
2	1	0	1	0	5.0464	0.564416	0.563968	0.0301772	1	6.83637e-05	41	5.0326	1.7019e-05
2	1	0	1	0	7.5452	0.614392	0.614313	0.0527667	1	0.000172064	41	7.5314	3.24153e-05
2	1	0	1	0	10.044	0.664369	0.663951	0.0672321	1	0.000325652	41	10.0302	4.46388e-05
2	1	0	1	0	12.5428	0.714343	0.714006	0.0654962	1	0.000494187	41	12.529	4.67647e-05
2	1	0	1	0	15.0417	0.764321	0.764186	0.0575286	1	0.000648385	41	15.0279	4.39626e-05
2	1	0	1	0	17.5405	0.814297	0.814037	0.0503109	1	0.000782911	41	17.5267	4.09549e-05
2	1	0	1	0	20.0393	0.864274	0.863737	0.0450855	1	0.000901812	41	20.0255	3.8942e-05
2	1	0	1	0	22.5381	0.91425	0.913843	0.0415211	1	0.00100982	41	22.5243	3.79438e-05
2	1	0	1	0	25.0369	0.964226	0.96379	0.0391384	1	0.00111053	41	25.0231	3.77212e-05
2	1	0	1	0	27.5139	0.986216	0.985947	0.0354877	1	0.00120454	41	27.5001	3.4989e-05
2	1	0	1	0	30.0127	0.936239	0.935641	0.0324594	1	0.00128867	41	29.9989	3.03703e-05
2	1	0	1	0	32.5115	0.886263	0.885872	0.0305498	1	0.00136712	41	32.4977	2.70633e-05
2	1	0	1	0	35.0103	0.836287	0.83592	0.0287743	1	0.00144103	41	34.9965	2.40531e-05
2	1	0	1	0	37.5092	0.78631	0.785892	0.0266814	1	0.00151016	41	37.4954	2.09687e-05
2	1	0	1	0	40.008	0.736334	0.736192	0.0239141	1	0.00157328	41	39.9942	1.76054e-05
2	1	0	1	0	42.5068	0.686358	0.685873	0.0201383	1	0.0016283	41	42.493	1.38123e-05
2	1	0	1	0	45.0056	0.636382	0.636047	0.0151254	1	0.00167235	41	44.9918	9.62047e-06
2	1	0	1	0	47.5044	0.586406	0.586347	0.00926203	1	0.00170254	41	47.4906	5.43076e-06
2	1	0	1	0	50.0332	0.53583	0.535325	0.00313804	1	0.00171811	42	50.0194	1.67987e-06
2	0	0	1	0	52.592	0.484654	0.484396	-0.00413345	1	0.00171736	42	1.3294	-2.00223e-06
2	0	0	1	0	55.1208	0.434078	0.433992	-0.0156161	1	0.00169368	41	3.8582	-6.77726e-06
2	0	0	1	0	57.6196	0.384102	0.383361	-0.0356125	1	0.00163172	41	6.357	-1.36525e-05
2	0	0	1	0	60.1184	0.334126	0.33414	-0.0652047	1	0.00150686	41	8.8558	-2.17875e-05
2	0	0	1	0	62.6172	0.284149	0.284162	-0.0904632	1	0.00130886	41	11.3546	-2.57062e-05
2	0	0	1	0	65.116	0.234173	0.233959	-0.092717	1	0.00107474	41	13.8534	-2.1692e-05
2	0	0	1	0	67.6148	0.184197	0.184103	-0.0794574	1	0.000858339	41	16.3522	-1.46283e-05
2	0	0	1	0	70.1136	0.134223	0.134094	-0.0661124	1	0.000677039	41	18.851	-8.86527e-06
2	0	0	1	0	72.6125	0.0842446	0.083897	-0.0564004	1	0.000524481	41	21.3499	-4.73183e-06
2	0	0	1	0	75.1113	0.0342684	0.0338558	-0.0496364	1	0.000392299	41	23.8487	-1.68048e-06
2	0	0	1	1	77.5883	0.0152774	0.0152551	-0.0429438	1	0.000276657	41	26.3257	-6.55113e-07
2	0	0	1	1	80.0871	0.0652536	0.06498	-0.037837	1	0.000176302	41	28.8245	-2.45865e-06
2	0	0	1	1	82.5859	0.11523	0.114626	-0.0338439	1	8.69976e-05	41	31.3233	-3.87939e-06
2	0	0	1	1	85.0847	0.165206	0.165286	-0.0300309	1	7.34958e-06	41	33.8221	-4.96369e-06
2	0	0	1	1	87.5835	0.215182	0.214879	-0.0255924	1	-6.2135e-05	41	36.3209	-5.49927e-06
2	0	0	1	1	90.0823	0.265159	0.264863	-0.0201532	1	-0.000119393	41	38.8197	-5.33784e-06
2	0	0	1	1	92.5812	0.315137	0.315016	-0.013843	1	-0.000161862	41	41.3186	-4.36077e-06
2	0	0	1	1	95.08	0.365111	0.364999	-0.00719355	1	-0.000188036	41	43.8174	-2.62564e-06
2	1	0	1	1	97.6387	0.416287	0.416067	9.64452e-05	1	-0.000197305	43	0.000000000000000E+000	4.01277e-08
2	1	0	1	1	100.133	0.466163	0.465838	0.00981716	2	-0.000185886	42	2.4939	4.57321e-06
2	1	0	1	1	102.661	0.516739	0.516464	0.0265085	2	-0.000141778	41	5.0227	1.36907e-05
2	1	0	1	1	105.16	0.566715	0.566452	0.0525906	2	-4.466e-05	41	7.5215	2.97901e-05
2	1	0	1	1	107.659	0.616691	0.616428	0.0816204	2	0.000124493	41	10.0203	5.03131e-05
2	1	0	1	1	110.158	0.666668	0.666589	0.0933222	2	0.000348721	41	12.5191	6.22076e-05
2	1	0	1	1	112.657	0.716644	0.716246	0.0843693	2	0.000573406	41	15.0179	6.04292e-05
2	1	0	1	1	115.155	0.76662	0.766289	0.0709201	2	0.000767364	41	17.5167	5.43453e-05
2	1	0	1	1	117.654	0.816596	0.816274	0.0601043	2	0.000930537	41	20.0155	4.90616e-05
2	1	0	1	1	120.153	0.866573	0.86598	0.0525156	2	0.0010708	41	22.5143	4.54775e-05
2	1	0	1	1	122.652	0.916548	0.91622	0.0471774	2	0.00119513	41	25.0131	4.32249e-05
2	1	0	1	1	125.151	0.966525	0.966072	0.0435009	2	0.00130828	41	27.512	4.2025e-05
2	1	0	1	1	127.613	0.984217	0.983976	0.0391367	2	0.00141127	41	29.974	3.85096e-05
2	1	0	1	1	130.111	0.93424	0.933924	0.0355395	2	0.00150397	41	32.4728	3.31912e-05
2	1	0	1	1	132.61	0.884264	0.883847	0.0330342	2	0.00158933	41	34.9716	2.91972e-05
2	1	0	1	1	135.109	0.834288	0.83405	0.030721	2	0.00166873	41	37.4704	2.56229e-05
2	1	0	1	1	137.608	0.784312	0.784165	0.028202	2	0.00174216	41	39.9692	2.2115e-05
2	1	0	1	1	140.107	0.734335	0.733928	0.0250584	2	0.00180862	41	42.468	1.83911e-05
2	1	0	1	1	142.605	0.684359	0.684084	0.02106	2	0.00186618	41	44.9668	1.44068e-05
2	1	0	1	1	145.104	0.634383	0.634091	0.0157484	2	0.00191216	41	47.4656	9.98593e-06
2	1	0	1	1	147.603	0.584406	0.584079	0.00963748	2	0.00194364	41	49.9645	5.62905e-06
2	1	0	1	1	150.132	0.53383	0.533495	0.00319864	2	0.0019598	42	52.4933	1.70646e-06
2	0	0	1	1	152.691	0.482655	0.482419	-0.00465304	2	0.00195852	42	1.3793	-2.24472e-06
2	0	0	1	1	155.219	0.432079	0.431444	-0.0170018	2	0.00193246	41	3.9081	-7.33531e-06
2	0	0	1	1	157.718	0.382101	0.381909	-0.0381876	2	0.00186548	41	6.407	-1.45842e-05
2	0	0	1	1	160.217	0.332127	0.331565	-0.0679948	2	0.00173351	41	8.9058	-2.25447e-05
2	0	0	1	1	162.716	0.28215	0.281898	-0.0913221	2	0.00153047	41	11.4046	-2.57435e-05
2	0	0	1	1	165.215	0.232174	0.231839	-0.0913418	2	0.00129732	41	13.9034	-2.11766e-05
[...]
2	0	0	1	0	192.68	0.317134	0.316808	-0.0137845	2	7.63145e-05	41	41.3685	-4.36702e-06
2	0	0	1	0	195.179	0.36711	0.366707	-0.00705631	2	5.03818e-05	41	43.8673	-2.5876e-06
2	1	0	1	0	197.737	0.418286	0.418087	0.000424525	2	4.16637e-05	43	0.1	1.77488e-07
2	1	0	1	0	200.231	0.468162	0.467933	0.0106346	3	5.4439e-05	42	2.5938	4.97628e-06
2	1	0	1	0	202.76	0.518738	0.518482	0.0281412	3	0.000101626	41	5.1226	1.45907e-05
2	1	0	1	0	205.259	0.568714	0.568487	0.0551183	3	0.000204066	41	7.6214	3.1334e-05
2	1	0	1	0	207.758	0.61869	0.618475	0.0836676	3	0.000379316	41	10.1202	5.17463e-05
2	1	0	1	0	210.256	0.668667	0.668046	0.0932724	3	0.000606063	41	12.619	6.23102e-05
2	1	0	1	0	212.755	0.718643	0.718283	0.0831191	3	0.000828792	41	15.1179	5.9703e-05
2	1	0	1	0	215.254	0.768619	0.768302	0.0697032	3	0.00101958	41	17.6167	5.35531e-05
2	1	0	1	0	217.753	0.818595	0.818334	0.0591709	3	0.00118007	41	20.1155	4.84215e-05
2	1	0	1	0	220.252	0.868572	0.868109	0.0517344	3	0.00131825	41	22.6143	4.49111e-05
2	1	0	1	0	222.751	0.918548	0.918386	0.0465265	3	0.00144083	41	25.1131	4.27293e-05
2	1	0	1	0	225.249	0.968524	0.968287	0.0429153	3	0.00155248	41	27.6119	4.15543e-05
2	1	0	1	0	227.711	0.982218	0.981995	0.0385988	3	0.00165387	41	30.0739	3.79039e-05
2	1	0	1	0	230.21	0.932241	0.931867	0.0352368	3	0.00174552	41	32.5727	3.2836e-05
2	1	0	1	0	232.709	0.882265	0.881867	0.0328289	3	0.0018303	41	35.0715	2.89507e-05
2	1	0	1	0	235.208	0.83229	0.83226	0.0305513	3	0.00190929	41	37.5703	2.54266e-05
2	1	0	1	0	237.707	0.782313	0.781948	0.0280845	3	0.00198235	41	40.0692	2.19606e-05
2	1	0	1	0	240.205	0.732336	0.731934	0.0249432	3	0.00204846	41	42.568	1.82568e-05
2	1	0	1	0	242.704	0.68236	0.682137	0.0209035	3	0.00210569	41	45.0668	1.4259e-05
2	1	0	1	0	245.203	0.632384	0.632039	0.0156116	3	0.00215136	41	47.5656	9.86717e-06
2	1	0	1	0	247.702	0.582408	0.58221	0.00948003	3	0.0021825	41	50.0644	5.51937e-06
2	1	0	1	0	250.231	0.531832	0.531385	0.00295512	3	0.00219821	42	52.5932	1.57031e-06
2	0	0	1	0	252.789	0.480656	0.48024	-0.00520179	3	0.00219599	42	1.5043	-2.49811e-06
2	0	0	1	0	255.318	0.43008	0.42996	-0.0182231	3	0.00216783	41	4.0331	-7.83519e-06
2	0	0	1	0	257.817	0.380104	0.379629	-0.040226	3	0.00209687	41	6.5319	-1.5271e-05
2	0	0	1	0	260.316	0.330128	0.329921	-0.0703648	3	0.00195917	41	9.0307	-2.32148e-05
2	0	0	1	0	262.815	0.280151	0.279837	-0.0923379	3	0.00175162	41	11.5295	-2.58396e-05
2	0	0	1	0	265.313	0.230175	0.22999	-0.0907675	3	0.00151814	41	14.0283	-2.08757e-05
2	0	0	1	0	267.812	0.180197	0.180056	-0.0768376	3	0.00130792	41	16.5272	-1.38351e-05
2	0	0	1	0	270.311	0.130223	0.129915	-0.0641675	3	0.00113233	41	19.026	-8.33629e-06
2	0	0	1	0	272.81	0.0802465	0.0799908	-0.0550757	3	0.000983885	41	21.5248	-4.40555e-06
2	0	0	1	0	275.309	0.0302703	0.0300122	-0.0486693	3	0.000854594	41	24.0236	-1.46067e-06
2	0	0	1	1	277.786	0.0192755	0.0189093	-0.0421904	3	0.000741313	41	26.5006	-7.97791e-07
2	0	0	1	1	280.285	0.0692517	0.0690978	-0.0374088	3	0.000642386	41	28.9994	-2.58487e-06
2	0	0	1	1	282.783	0.119228	0.11882	-0.0335447	3	0.000553984	41	31.4982	-3.98578e-06
2	0	0	1	1	285.282	0.169204	0.169073	-0.0297461	3	0.000475011	41	33.997	-5.02925e-06
2	0	0	1	1	287.781	0.21918	0.218897	-0.0253629	3	0.000406115	41	36.4958	-5.55186e-06
2	0	0	1	1	290.28	0.269157	0.268828	-0.0199206	3	0.000349438	41	38.9946	-5.35521e-06
2	0	0	1	1	292.779	0.319132	0.318881	-0.0135503	3	0.000307597	41	41.4934	-4.32094e-06
2	0	0	1	1	295.277	0.369109	0.368804	-0.00681935	3	0.000282181	41	43.9923	-2.51501e-06
2	1	0	1	1	297.836	0.420285	0.419819	0.000807466	3	0.000274199	43	0.2248	3.3899e-07
2	1	0	1	1	299.938	0.46234	0.462295	0.0094001	3	0.000284329	42	2.3268	4.34561e-06