Folder: Thesis/Python/Data/RDE (part 18)

File: 240223-OCV-EIS-Fe2Fe3_5mM-HCl1M-2000RPM-Ag_AgCl_BLF8-GC-RDE-1minRest-3ppf-14p1mVAmplitude_02_PEIS_C15.mpt
EC-Lab ASCII FILE
Nb header lines : 67

Potentio Electrochemical Impedance Spectroscopy

Run on channel : 15 (SN 19485)
User :
Electrode connection : standard
Potential control : Ewe
Ewe ctrl range : min = -1.00 V, max = 1.00 V
Ewe,I filtering : 50 kHz
Safety Limits :
	Do not start on E overload
Channel : Floating
Acquisition started on : 02/23/2024 14:08:11.747
Loaded Setting File :  NONE
Saved on :
	File : 240223-OCV-EIS-Fe2Fe3_5mM-HCl1M-2000RPM-Ag_AgCl_BLF8-GC-RDE-1minRest-3ppf-14p1mVAmplitude_02_PEIS_C15.mpr
	Directory : C:\Data\mathias\RDE-RPM-variation\
	Host : 192.168.0.1
Device : VMP-300 (SN 0826)
Address : USB
EC-Lab for windows v11.52 (software)
Internet server v11.52 (firmware)
Command interpretor v11.52 (firmware)
Electrode material :
Initial state :
Electrolyte :
Comments :
Cable : special
Reference electrode : SCE Saturated Calomel Electrode (0.241 V)
Electrode surface area : 0.001 cm²
Characteristic mass : 0.001 g
Equivalent Weight : 0.000 g/eq.
Density : 0.000 g/cm3
Volume (V) : 0.001 cm³
Record EIS quality indicators
Cycle Definition : Charge/Discharge alternance
Mode                Single sine
E (V)               0.0000
vs.                 Ref
tE (h:m:s)          0:01:0.0000
record              0
dI                  0.000
unit dI             mA
dt (s)              0.000
fi                  1.000
unit fi             MHz
ff                  100.000
unit ff             mHz
Nd                  10
Points              per decade
spacing             Logarithmic
Va (mV)             14.1
pw                  0.10
Na                  3
corr                0
E range min (V)     -1.000
E range max (V)     1.000
I Range             Auto
Bandwidth           8
nc cycles           0
goto Ns'            0
nr cycles           0
inc. cycle          1

freq/Hz	Re(Z)/Ohm	-Im(Z)/Ohm	|Z|/Ohm	Phase(Z)/deg	time/s	<Ewe>/V	<I>/mA	Cs/µF	Cp/µF	cycle number	I Range	|Ewe|/V	|I|/A	Ns	(Q-Qo)/mA.h	THD Ewe/%	NSD Ewe/%	NSR Ewe/%	|Ewe h2|/V	|Ewe h3|/V	|Ewe h4|/V	|Ewe h5|/V	|Ewe h6|/V	|Ewe h7|/V	THD I/%	NSD I/%	NSR I/%	|I h2|/A	|I h3|/A	|I h4|/A	|I h5|/A	|I h6|/A	|I h7|/A	Re(Y)/Ohm-1	Im(Y)/Ohm-1	|Y|/Ohm-1	Phase(Y)/deg	Re(C)/nF	Im(C)/nF	|C|/nF	Phase(C)/deg	Re(M)	Im(M)	|M|	Phase(M)/deg	Re(Permittivity)	Im(Permittivity)	|Permittivity|	Phase(Permittivity)/deg	Re(Resistivity)/Ohm.cm	Im(Resistivity)/Ohm.cm	|Resistivity|/Ohm.cm	Phase(Resistivity)/deg	Re(Conductivity)/mS/cm	Im(Conductivity)/mS/cm	|Conductivity|/mS/cm	Phase(Conductivity)/deg	Tan(Delta)	Loss Angle(Delta)/deg	dq/mA.h
1.00002e+06	3.55003	4.08875	5.41485	-49.0341	118.281	-0.000173439	-0.51249	0.0389244	0.0221937	1	38	0.0111289	0.00205525	0	-0.00867094	-1	-1	-1	0	0	0	0	0	0	-1	-1	-1	0	0	0	0	0	0	0.121076	0.13945	0.184677	49.0341	22.1937	19.2695	29.3918	-40.9659	0.0000000E+000	0.0000000E+000	0.0000000E+000	40.9659	0.0000000E+000	0.0000000E+000	0.0000000E+000	-40.9659	0.0000000E+000	0.0000000E+000	0.0000000E+000	-49.0341	0.0000000E+000	0.0000000E+000	0.0000000E+000	49.0341	0.868243	40.9659	-0.00867094
316230	3.45537	1.31351	3.69661	-20.8136	123.882	-0.000179945	-0.51331	0.383162	0.0483777	1	38	0.014537	0.00393253	0	-0.00946548	-1	-1	-1	0	0	0	0	0	0	-1	-1	-1	0	0	0	0	0	0	0.252864	0.0961231	0.270518	20.8136	48.3777	127.264	136.149	-69.1864	0.0000000E+000	0.0000000E+000	0.0000000E+000	69.1864	0.0000000E+000	0.0000000E+000	0.0000000E+000	-69.1864	0.0000000E+000	0.0000000E+000	0.0000000E+000	-20.8136	0.0000000E+000	0.0000000E+000	0.0000000E+000	20.8136	2.63063	69.1864	-0.000170069
100004	3.43029	0.924891	3.55279	-15.0895	129.619	-0.000179721	-0.511437	1.72073	0.116615	1	38	0.0145495	0.00409522	0	-0.010287	0.54417	0.248948	8.94771	3.15789e-05	3.79611e-05	2.52578e-05	2.82257e-05	2.77469e-05	2.35447e-05	0.0648094	0.0346234	0.696548	1.71986e-06	1.22179e-06	9.2525e-07	7.56404e-07	4.5362e-07	6.49395e-07	0.271764	0.0732742	0.281469	15.0895	116.615	432.51	447.955	-74.9105	0.0000000E+000	0.0000000E+000	0.0000000E+000	74.9105	0.0000000E+000	0.0000000E+000	0.0000000E+000	-74.9105	0.0000000E+000	0.0000000E+000	0.0000000E+000	-15.0895	0.0000000E+000	0.0000000E+000	0.0000000E+000	15.0895	3.70886	74.9105	-0.000168725
31621.1	3.64696	1.74745	4.04399	-25.6015	135.356	-0.000161397	-0.50947	2.8803	0.537807	1	38	0.0146524	0.00362325	0	-0.0110906	0.540583	0.207097	8.86074	2.51812e-05	2.38337e-05	4.31838e-05	2.65568e-05	2.64941e-05	3.16103e-05	0.0532206	0.0551089	0.797606	6.36987e-07	8.61568e-07	8.58967e-07	5.85355e-07	2.4115e-07	8.23983e-07	0.223003	0.106852	0.24728	25.6015	537.807	1122.41	1244.61	-64.3985	0.0000000E+000	0.0000000E+000	0.0000000E+000	64.3985	0.0000000E+000	0.0000000E+000	0.0000000E+000	-64.3985	0.0000000E+000	0.0000000E+000	0.0000000E+000	-25.6015	0.0000000E+000	0.0000000E+000	0.0000000E+000	25.6015	2.08702	64.3985	-0.000160749
10002.2	4.32671	4.49533	6.23927	-46.095	141.092	-0.00016822	-0.511548	3.53966	1.83746	1	38	0.0145867	0.00233789	0	-0.0118976	0.470795	0.228643	8.9633	4.13519e-05	1.63471e-05	2.68462e-05	1.83706e-05	2.87533e-05	2.11958e-05	0.165362	0.0460553	1.23429	3.45002e-06	9.26174e-07	7.3483e-07	6.12761e-07	8.19759e-07	5.58524e-07	0.111145	0.115477	0.160275	46.095	1837.46	1768.54	2550.29	-43.905	0.0000000E+000	0.0000000E+000	0.0000000E+000	43.905	0.0000000E+000	0.0000000E+000	0.0000000E+000	-43.905	0.0000000E+000	0.0000000E+000	0.0000000E+000	-46.095	0.0000000E+000	0.0000000E+000	0.0000000E+000	46.095	0.96249	43.905	-0.000162206
3163.04	6.59109	11.8217	13.535	-60.8586	146.65	-0.000302153	-0.511515	4.25632	3.24699	1	38	0.0139963	0.00103408	0	-0.0126686	0.59063	0.33284	9.21705	3.9089e-05	4.01654e-05	2.36412e-05	1.61537e-05	2.329e-05	4.40303e-05	0.92282	0.0953758	2.8297	9.13074e-06	2.21048e-06	7.06362e-07	1.18522e-06	6.02495e-07	5.17899e-07	0.0359783	0.0645306	0.0738826	60.8586	3246.99	1810.33	3717.56	-29.1414	0.0000000E+000	0.0000000E+000	0.0000000E+000	29.1414	0.0000000E+000	0.0000000E+000	0.0000000E+000	-29.1414	0.0000000E+000	0.0000000E+000	0.0000000E+000	-60.8586	0.0000000E+000	0.0000000E+000	0.0000000E+000	60.8586	0.55754	29.1414	-0.00015603
999.682	14.2057	29.4607	32.7068	-64.2571	152.433	-0.000303085	-0.505219	5.40401	4.38456	1	39	0.0142985	0.000437172	0	-0.0134759	0.60479	0.240446	8.58188	6.22562e-05	2.54128e-05	2.01912e-05	2.60498e-05	3.05301e-05	1.7895e-05	1.52046	0.0670862	2.98589	6.26156e-06	1.96056e-06	2.43863e-07	8.81469e-07	3.3829e-07	3.02529e-07	0.0132797	0.0275402	0.0305747	64.2571	4384.56	2114.2	4867.67	-25.743	0.0000000E+000	0.0000000E+000	0.0000000E+000	25.743	0.0000000E+000	0.0000000E+000	0.0000000E+000	-25.743	0.0000000E+000	0.0000000E+000	0.0000000E+000	-64.2571	0.0000000E+000	0.0000000E+000	0.0000000E+000	64.2571	0.482191	25.743	-0.000185043
316.316	36.857	66.1965	75.7656	-60.8917	157.961	-0.000268525	-0.504796	7.60088	5.80217	1	39	0.0129067	0.00017035	0	-0.0142453	0.550175	0.267203	9.83459	2.52768e-05	3.36583e-05	2.59988e-05	3.14694e-05	1.92523e-05	2.69915e-05	1.23937	0.191595	7.90767	1.88178e-06	6.14823e-07	1.86309e-07	4.8949e-07	2.02989e-07	2.34921e-07	0.00642061	0.0115316	0.0131986	60.8917	5802.17	3230.54	6640.9	-29.1083	0.0000000E+000	0.0000000E+000	0.0000000E+000	29.1083	0.0000000E+000	0.0000000E+000	0.0000000E+000	-29.1083	0.0000000E+000	0.0000000E+000	0.0000000E+000	-60.8917	0.0000000E+000	0.0000000E+000	0.0000000E+000	60.8917	0.556782	29.1083	-0.000153431
[...]
31.6296	196.92	242.902	312.696	-50.9684	168.799	-0.000239483	-0.505529	20.7155	12.5001	1	39	0.0127277	4.0703e-05	0	-0.0157509	0.518032	0.177048	9.66311	2.17957e-05	3.98967e-05	1.66955e-05	1.92449e-05	1.52212e-05	2.84961e-05	2.05299	0.591054	31.3598	6.12521e-07	1.69523e-07	1.63059e-07	1.91505e-07	2.12212e-07	3.6916e-07	0.00201393	0.0024842	0.00319799	50.9684	12500.1	10133.8	16091.8	-39.0316	0.0000000E+000	0.0000000E+000	0.0000000E+000	39.0316	0.0000000E+000	0.0000000E+000	0.0000000E+000	-39.0316	0.0000000E+000	0.0000000E+000	0.0000000E+000	-50.9684	0.0000000E+000	0.0000000E+000	0.0000000E+000	50.9684	0.810697	39.0316	-0.000145027
9.99682	393.542	432.912	585.054	-47.7274	174.209	-0.000278666	-0.504587	36.7755	20.1357	1	39	0.0127146	2.17324e-05	0	-0.0165022	0.478835	0.142096	9.72051	1.74085e-05	1.12497e-05	2.78918e-05	3.15469e-05	2.85022e-05	1.70247e-05	4.27331	3.79943	60.0436	5.4482e-07	3.32091e-07	2.78896e-07	2.41448e-07	3.23158e-07	2.98908e-07	0.00114974	0.00126476	0.00170924	47.7274	20135.7	18304.5	27212.1	-42.2726	0.0000000E+000	0.0000000E+000	0.0000000E+000	42.2726	0.0000000E+000	0.0000000E+000	0.0000000E+000	-42.2726	0.0000000E+000	0.0000000E+000	0.0000000E+000	-47.7274	0.0000000E+000	0.0000000E+000	0.0000000E+000	47.7274	0.909056	42.2726	-0.000148264
3.16296	795.674	762.789	1102.24	-43.7912	182.65	-0.000240292	-0.504744	65.9664	31.5918	1	39	0.0127091	1.15302e-05	0	-0.0176745	0.258385	0.114858	4.49555	9.84082e-06	1.7556e-05	1.01777e-05	1.13646e-05	1.52464e-05	8.03652e-06	3.89367	4.31578	51.2824	2.3454e-07	2.05317e-07	9.86107e-08	1.53242e-07	1.4969e-07	9.49176e-08	0.000654906	0.000627839	0.000907239	43.7912	31591.8	32953.8	45650.8	-46.2088	0.0000000E+000	0.0000000E+000	0.0000000E+000	46.2088	0.0000000E+000	0.0000000E+000	0.0000000E+000	-46.2088	0.0000000E+000	0.0000000E+000	0.0000000E+000	-43.7912	0.0000000E+000	0.0000000E+000	0.0000000E+000	43.7912	1.04311	46.2088	-0.000322048
1.00006	1631.54	702.916	1776.52	-23.3078	204.76	-0.000243132	-0.503657	226.407	35.4451	1	39	0.012709	7.15389e-06	0	-0.0207633	0.157482	0.0592533	2.44189	3.86206e-06	1.13586e-05	4.64549e-06	9.89458e-06	8.40663e-06	5.91058e-06	8.29982	14.4269	45.4054	3.40118e-07	2.37463e-07	2.66431e-07	1.95077e-07	2.0219e-07	8.95456e-08	0.000516962	0.000222722	0.000562898	23.3078	35445.1	82271.9	89582.5	-66.6922	0.0000000E+000	0.0000000E+000	0.0000000E+000	66.6922	0.0000000E+000	0.0000000E+000	0.0000000E+000	-66.6922	0.0000000E+000	0.0000000E+000	0.0000000E+000	-23.3078	0.0000000E+000	0.0000000E+000	0.0000000E+000	23.3078	2.32111	66.6922	-0.000902973
0.316193	2064.41	308.56	2087.34	-8.50088	270.558	-0.000261506	-0.503812	1631.28	35.6469	1	39	0.0127123	6.09018e-06	0	-0.0299583	0.153891	0.0437816	1.27326	4.54348e-06	1.21695e-05	3.22581e-06	1.25471e-05	3.51432e-06	4.22583e-06	13.149	5.23186	32.0957	4.00935e-07	1.95604e-07	3.58197e-07	2.94724e-07	2.81969e-07	2.79277e-07	0.000473816	7.08196e-05	0.000479079	8.50088	35646.9	238494	241143	-81.4991	0.0000000E+000	0.0000000E+000	0.0000000E+000	81.4991	0.0000000E+000	0.0000000E+000	0.0000000E+000	-81.4991	0.0000000E+000	0.0000000E+000	0.0000000E+000	-8.50088	0.0000000E+000	0.0000000E+000	0.0000000E+000	8.50088	6.69046	81.4991	-0.00274259

File: 240223-OCV-EIS-Fe2Fe3_5mM-HCl1M-2000RPM-Ag_AgCl_BLF8-GC-RDE-1minRestVSEoc-3ppf-14p1mVAmplitude_02_PEIS_C15.mpt
EC-Lab ASCII FILE
Nb header lines : 67

Potentio Electrochemical Impedance Spectroscopy

Run on channel : 15 (SN 19485)
User :
Electrode connection : standard
Potential control : Ewe
Ewe ctrl range : min = -1.00 V, max = 1.00 V
Ewe,I filtering : 50 kHz
Safety Limits :
	Do not start on E overload
Channel : Floating
Acquisition started on : 02/23/2024 14:14:06.635
Loaded Setting File :  NONE
Saved on :
	File : 240223-OCV-EIS-Fe2Fe3_5mM-HCl1M-2000RPM-Ag_AgCl_BLF8-GC-RDE-1minRestVSEoc-3ppf-14p1mVAmplitude_02_PEIS_C15.mpr
	Directory : C:\Data\mathias\RDE-RPM-variation\
	Host : 192.168.0.1
Device : VMP-300 (SN 0826)
Address : USB
EC-Lab for windows v11.52 (software)
Internet server v11.52 (firmware)
Command interpretor v11.52 (firmware)
Electrode material :
Initial state :
Electrolyte :
Comments :
Cable : special
Reference electrode : SCE Saturated Calomel Electrode (0.241 V)
Electrode surface area : 0.001 cm²
Characteristic mass : 0.001 g
Equivalent Weight : 0.000 g/eq.
Density : 0.000 g/cm3
Volume (V) : 0.001 cm³
Record EIS quality indicators
Cycle Definition : Charge/Discharge alternance
Mode                Single sine
E (V)               0.0000
vs.                 Eoc
tE (h:m:s)          0:01:0.0000
record              0
dI                  0.000
unit dI             mA
dt (s)              0.000
fi                  1.000
unit fi             MHz
ff                  100.000
unit ff             mHz
Nd                  10
Points              per decade
spacing             Logarithmic
Va (mV)             14.1
pw                  0.10
Na                  3
corr                0
E range min (V)     -1.000
E range max (V)     1.000
I Range             Auto
Bandwidth           8
nc cycles           0
goto Ns'            0
nr cycles           0
inc. cycle          1

freq/Hz	Re(Z)/Ohm	-Im(Z)/Ohm	|Z|/Ohm	Phase(Z)/deg	time/s	<Ewe>/V	<I>/mA	Cs/µF	Cp/µF	cycle number	I Range	|Ewe|/V	|I|/A	Ns	(Q-Qo)/mA.h	THD Ewe/%	NSD Ewe/%	NSR Ewe/%	|Ewe h2|/V	|Ewe h3|/V	|Ewe h4|/V	|Ewe h5|/V	|Ewe h6|/V	|Ewe h7|/V	THD I/%	NSD I/%	NSR I/%	|I h2|/A	|I h3|/A	|I h4|/A	|I h5|/A	|I h6|/A	|I h7|/A	Re(Y)/Ohm-1	Im(Y)/Ohm-1	|Y|/Ohm-1	Phase(Y)/deg	Re(C)/nF	Im(C)/nF	|C|/nF	Phase(C)/deg	Re(M)	Im(M)	|M|	Phase(M)/deg	Re(Permittivity)	Im(Permittivity)	|Permittivity|	Phase(Permittivity)/deg	Re(Resistivity)/Ohm.cm	Im(Resistivity)/Ohm.cm	|Resistivity|/Ohm.cm	Phase(Resistivity)/deg	Re(Conductivity)/mS/cm	Im(Conductivity)/mS/cm	|Conductivity|/mS/cm	Phase(Conductivity)/deg	Tan(Delta)	Loss Angle(Delta)/deg	dq/mA.h
1.00002e+06	3.55759	4.09025	5.42094	-48.9841	123.186	0.459642	-0.0126447	0.0389101	0.022152	1	38	0.011166	0.0020598	0	-4.555e-06	-1	-1	-1	0	0	0	0	0	0	-1	-1	-1	0	0	0	0	0	0	0.121062	0.139188	0.18447	48.9841	22.152	19.2672	29.3587	-41.0159	0.0000000E+000	0.0000000E+000	0.0000000E+000	41.0159	0.0000000E+000	0.0000000E+000	0.0000000E+000	-41.0159	0.0000000E+000	0.0000000E+000	0.0000000E+000	-48.9841	0.0000000E+000	0.0000000E+000	0.0000000E+000	48.9841	0.869773	41.0159	-4.555e-06
316230	3.45988	1.33967	3.71019	-21.1664	128.785	0.459631	-0.00399032	0.375681	0.0489805	1	38	0.0145712	0.00392735	0	-8.66951e-06	-1	-1	-1	0	0	0	0	0	0	-1	-1	-1	0	0	0	0	0	0	0.251345	0.0973208	0.269528	21.1664	48.9805	126.499	135.65	-68.8336	0.0000000E+000	0.0000000E+000	0.0000000E+000	68.8336	0.0000000E+000	0.0000000E+000	0.0000000E+000	-68.8336	0.0000000E+000	0.0000000E+000	0.0000000E+000	-21.1664	0.0000000E+000	0.0000000E+000	0.0000000E+000	21.1664	2.58264	68.8336	-2.16153e-06
100004	3.43686	1.01208	3.58278	-16.4086	134.521	0.459623	-0.00277819	1.57249	0.125482	1	38	0.0145751	0.00406809	0	-1.18902e-05	0.470286	0.254949	8.84853	2.04916e-05	4.0747e-05	1.67902e-05	2.57594e-05	2.56891e-05	2.30153e-05	0.0627321	0.0277361	0.713741	1.69739e-06	1.33329e-06	4.02505e-07	2.63442e-07	6.96388e-07	6.55363e-07	0.267745	0.0788455	0.279113	16.4086	125.482	426.114	444.206	-73.5914	0.0000000E+000	0.0000000E+000	0.0000000E+000	73.5914	0.0000000E+000	0.0000000E+000	0.0000000E+000	-73.5914	0.0000000E+000	0.0000000E+000	0.0000000E+000	-16.4086	0.0000000E+000	0.0000000E+000	0.0000000E+000	16.4086	3.39582	73.5914	2.21823e-06
31621.1	3.62183	2.00552	4.14001	-28.9747	140.256	0.459632	-0.00355277	2.50967	0.588932	1	38	0.0146396	0.00353611	0	-1.41311e-05	0.4574	0.27836	8.94607	2.97891e-05	1.64014e-05	4.27983e-05	1.747e-05	2.20241e-05	2.15853e-05	0.0635637	0.0549713	0.807358	1.04126e-06	1.00203e-06	1.04421e-06	7.13846e-07	4.90759e-07	5.44651e-07	0.211312	0.11701	0.241545	28.9747	588.932	1063.57	1215.74	-61.0253	0.0000000E+000	0.0000000E+000	0.0000000E+000	61.0253	0.0000000E+000	0.0000000E+000	0.0000000E+000	-61.0253	0.0000000E+000	0.0000000E+000	0.0000000E+000	-28.9747	0.0000000E+000	0.0000000E+000	0.0000000E+000	28.9747	1.80593	61.0253	5.06506e-06
10002.2	4.21904	5.40401	6.85592	-52.0199	145.991	0.459622	-0.00221595	2.94447	1.8294	1	38	0.0145864	0.00212756	0	-1.40081e-05	0.395969	0.205114	8.76492	2.2396e-05	2.41813e-05	2.43409e-05	1.87569e-05	1.912e-05	2.36268e-05	0.17803	0.0489169	1.38379	3.39772e-06	1.00312e-06	6.64688e-07	7.1708e-07	2.77617e-07	6.10706e-07	0.08976	0.11497	0.145859	52.0199	1829.4	1428.26	2320.91	-37.9801	0.0000000E+000	0.0000000E+000	0.0000000E+000	37.9801	0.0000000E+000	0.0000000E+000	0.0000000E+000	-37.9801	0.0000000E+000	0.0000000E+000	0.0000000E+000	-52.0199	0.0000000E+000	0.0000000E+000	0.0000000E+000	52.0199	0.780725	37.9801	-1.45846e-06
3163.04	6.24968	14.976	16.2277	-67.3486	151.553	0.459473	-0.00403883	3.35985	2.86151	1	38	0.0128892	0.000794269	0	-1.94762e-05	0.493999	0.284993	9.98621	2.51743e-05	1.37295e-05	1.98165e-05	3.32079e-05	2.19643e-05	3.01171e-05	0.599819	0.0730315	3.64506	4.07153e-06	1.88561e-06	4.25945e-07	8.19643e-07	9.66189e-07	4.92878e-07	0.0237325	0.0568696	0.0616229	67.3486	2861.51	1194.15	3100.69	-22.6514	0.0000000E+000	0.0000000E+000	0.0000000E+000	22.6514	0.0000000E+000	0.0000000E+000	0.0000000E+000	-22.6514	0.0000000E+000	0.0000000E+000	0.0000000E+000	-67.3486	0.0000000E+000	0.0000000E+000	0.0000000E+000	67.3486	0.417313	22.6514	-1.31347e-06
999.682	13.1537	40.1919	42.2895	-71.8782	157.559	0.459473	-0.000417697	3.96114	3.57792	1	39	0.0143463	0.000339239	0	-2.35821e-05	0.538178	0.20554	8.83214	2.77233e-05	3.32959e-05	3.17945e-05	3.17388e-05	2.77991e-05	2.26328e-05	1.09909	0.121461	3.88676	2.84937e-06	2.09853e-06	3.18326e-07	9.96504e-07	3.13619e-07	2.99142e-07	0.00735497	0.0224736	0.0236465	71.8782	3577.92	1170.95	3764.66	-18.1218	0.0000000E+000	0.0000000E+000	0.0000000E+000	18.1218	0.0000000E+000	0.0000000E+000	0.0000000E+000	-18.1218	0.0000000E+000	0.0000000E+000	0.0000000E+000	-71.8782	0.0000000E+000	0.0000000E+000	0.0000000E+000	71.8782	0.327272	18.1218	-3.28845e-07
316.316	34.37	103.69	109.238	-71.6612	163.087	0.45953	-0.000155468	4.85247	4.3721	1	39	0.0131816	0.000120669	0	-2.39629e-05	0.606355	0.329982	9.47967	2.7571e-05	2.9088e-05	3.71011e-05	3.36157e-05	2.51017e-05	2.41213e-05	0.991613	0.366661	10.5407	7.98285e-07	3.80209e-07	1.79681e-07	6.32286e-07	1.23683e-07	3.35853e-07	0.00288028	0.00868943	0.00915435	71.6612	4372.1	1449.22	4606.03	-18.3388	0.0000000E+000	0.0000000E+000	0.0000000E+000	18.3388	0.0000000E+000	0.0000000E+000	0.0000000E+000	-18.3388	0.0000000E+000	0.0000000E+000	0.0000000E+000	-71.6612	0.0000000E+000	0.0000000E+000	0.0000000E+000	71.6612	0.331469	18.3388	-1.36669e-07
[...]
9.99682	925.898	1167.22	1489.86	-51.5767	179.881	0.459553	-9.46979e-05	13.6398	8.37181	1	41	0.0130424	8.7541e-06	0	-2.47254e-05	1.41184	0.630513	19.3543	4.30317e-05	8.88005e-05	8.11449e-05	4.42037e-05	6.11155e-05	8.62276e-05	0.779213	0.206738	5.66331	5.21237e-08	3.09733e-08	1.55385e-08	1.55036e-08	1.14173e-08	1.62336e-08	0.000417131	0.000525849	0.000671204	51.5767	8371.81	6640.96	10686	-38.4233	0.0000000E+000	0.0000000E+000	0.0000000E+000	38.4233	0.0000000E+000	0.0000000E+000	0.0000000E+000	-38.4233	0.0000000E+000	0.0000000E+000	0.0000000E+000	-51.5767	0.0000000E+000	0.0000000E+000	0.0000000E+000	51.5767	0.793253	38.4233	-9.14205e-08
3.16296	2207.88	1436.25	2633.92	-33.0445	188.323	0.459565	-9.82556e-05	35.0345	10.4172	1	41	0.0130249	4.94507e-06	0	-2.48755e-05	0.517994	0.282623	8.52098	2.61601e-05	2.51434e-05	2.65725e-05	2.19266e-05	1.92612e-05	3.46795e-05	0.789948	0.146394	4.81075	3.12018e-08	1.71928e-08	6.05582e-09	1.03853e-08	4.7119e-09	8.10842e-09	0.000318251	0.000207026	0.000379662	33.0445	10417.2	16013.9	19104	-56.9555	0.0000000E+000	0.0000000E+000	0.0000000E+000	56.9555	0.0000000E+000	0.0000000E+000	0.0000000E+000	-56.9555	0.0000000E+000	0.0000000E+000	0.0000000E+000	-33.0445	0.0000000E+000	0.0000000E+000	0.0000000E+000	33.0445	1.53725	56.9555	4.25459e-08
1.00006	3295.5	974.629	3436.6	-16.4754	212.071	0.459536	-0.000100711	163.288	13.1333	1	42	0.0130151	3.78719e-06	0	-2.57925e-05	0.286277	0.168257	4.69358	1.75405e-05	2.00425e-05	5.15752e-06	1.02076e-05	1.31137e-05	1.70291e-05	0.680543	0.0391484	1.28591	2.25975e-08	1.14446e-08	3.02449e-10	4.58223e-09	6.60474e-10	6.52094e-10	0.000279038	8.25243e-05	0.000290986	16.4754	13133.3	44407.6	46308.9	-73.5246	0.0000000E+000	0.0000000E+000	0.0000000E+000	73.5246	0.0000000E+000	0.0000000E+000	0.0000000E+000	-73.5246	0.0000000E+000	0.0000000E+000	0.0000000E+000	-16.4754	0.0000000E+000	0.0000000E+000	0.0000000E+000	16.4754	3.38128	73.5246	-4.84663e-07
0.316193	3769.45	488.398	3800.96	-7.38254	277.867	0.459541	-9.84143e-05	1030.61	17.0159	1	42	0.0130162	3.42446e-06	0	-2.69576e-05	0.155345	0.0990099	2.54988	1.02673e-05	9.03192e-06	6.16678e-06	8.56936e-06	6.6065e-06	5.227e-06	0.703541	0.0291734	1.42332	2.16524e-08	1.00628e-08	2.91649e-10	3.14795e-09	3.0844e-10	2.72294e-10	0.000260911	3.38055e-05	0.000263092	7.38254	17015.9	131329	132427	-82.6175	0.0000000E+000	0.0000000E+000	0.0000000E+000	82.6175	0.0000000E+000	0.0000000E+000	0.0000000E+000	-82.6175	0.0000000E+000	0.0000000E+000	0.0000000E+000	-7.38254	0.0000000E+000	0.0000000E+000	0.0000000E+000	7.38254	7.71799	82.6175	-2.77071e-08
0.0999518	3980.39	216.317	3986.27	-3.11071	482.45	0.459558	-9.54758e-05	7361.05	21.6764	1	42	0.0130158	3.26516e-06	0	-3.29468e-05	0.122594	0.0948734	1.50616	6.02933e-06	1.0203e-05	5.03494e-06	7.26519e-06	2.96727e-06	3.82021e-06	0.74622	0.0560852	1.37953	2.22641e-08	9.55898e-09	4.27814e-10	2.48289e-09	2.03623e-10	2.0111e-10	0.000250492	1.36131e-05	0.000250861	3.11071	21676.4	398862	399451	-86.8893	0.0000000E+000	0.0000000E+000	0.0000000E+000	86.8893	0.0000000E+000	0.0000000E+000	0.0000000E+000	-86.8893	0.0000000E+000	0.0000000E+000	0.0000000E+000	-3.11071	0.0000000E+000	0.0000000E+000	0.0000000E+000	3.11071	18.4008	86.8893	-7.35032e-07

File: 240223-OCV-EIS-Fe2Fe3_5mM-HCl1M-2000RPM-Ag_AgCl_BLF8-GC-RDE-1minRestVSEoc-3ppf-14p1mVAmplitude_03_OCV_C15.mpt
EC-Lab ASCII FILE
Nb header lines : 47

Open Circuit Voltage

Run on channel : 15 (SN 19485)
User :
Electrode connection : standard
Potential control : Ewe
Ewe ctrl range : min = -1.00 V, max = 1.00 V
Ewe,I filtering : 50 kHz
Safety Limits :
	Do not start on E overload
Channel : Floating
Acquisition started on : 02/23/2024 14:14:06.635
Loaded Setting File :  NONE
Saved on :
	File : 240223-OCV-EIS-Fe2Fe3_5mM-HCl1M-2000RPM-Ag_AgCl_BLF8-GC-RDE-1minRestVSEoc-3ppf-14p1mVAmplitude_03_OCV_C15.mpr
	Directory : C:\Data\mathias\RDE-RPM-variation\
	Host : 192.168.0.1
Device : VMP-300 (SN 0826)
Address : USB
EC-Lab for windows v11.52 (software)
Internet server v11.52 (firmware)
Command interpretor v11.52 (firmware)
Electrode material :
Initial state :
Electrolyte :
Comments :
Cable : special
Reference electrode : SCE Saturated Calomel Electrode (0.241 V)
Electrode surface area : 0.001 cm²
Characteristic mass : 0.001 g
Equivalent Weight : 0.000 g/eq.
Density : 0.000 g/cm3
Volume (V) : 0.001 cm³
Record EIS quality indicators
Cycle Definition : Charge/Discharge alternance
tR (h:m:s)          0:01:0.0000
dER/dt (mV/h)       1.0
record              <Ewe>
dER (mV)            0.00
dtR (s)             0.5000
E range min (V)     -1.000
E range max (V)     1.000

mode	error	time/s	<Ewe/V>
3	0	482.95	0.460972
3	0	483.45	0.4601
3	0	483.95	0.459952
3	0	484.45	0.459906
3	0	484.95	0.459884
3	0	485.45	0.459871
3	0	485.95	0.459865
3	0	486.45	0.459864
3	0	486.95	0.45986
3	0	487.45	0.459856
3	0	487.95	0.459854
3	0	488.45	0.459856
3	0	488.95	0.459853
3	0	489.45	0.459852
3	0	489.95	0.45985
3	0	490.45	0.45985
3	0	490.95	0.459851
3	0	491.45	0.459848
3	0	491.95	0.459848
3	0	492.45	0.459845
3	0	492.95	0.459842
3	0	493.45	0.459841
3	0	493.95	0.45984
3	0	494.45	0.459842
3	0	494.95	0.459841
3	0	495.45	0.459838
3	0	495.95	0.459838
3	0	496.45	0.459835
3	0	496.95	0.459836
3	0	497.45	0.459839
3	0	497.95	0.459838
3	0	498.45	0.459836
3	0	498.95	0.459837
3	0	499.45	0.459841
3	0	499.95	0.45984
3	0	500.45	0.459842
3	0	500.95	0.45984
3	0	501.45	0.45984
3	0	501.95	0.459837
3	0	502.45	0.459837
3	0	502.95	0.459839
3	0	503.45	0.459839
3	0	503.95	0.459839
3	0	504.45	0.459837
3	0	504.95	0.459836
3	0	505.45	0.459837
3	0	505.95	0.459838
3	0	506.45	0.459836
3	0	506.95	0.459832
3	0	507.45	0.459834
3	0	507.95	0.459833
3	0	508.45	0.459832
3	0	508.95	0.459835
3	0	509.45	0.459838
3	0	509.95	0.459836
3	0	510.45	0.459834
3	0	510.95	0.459833
3	0	511.45	0.459837
3	0	511.95	0.459838
3	0	512.45	0.459836
3	0	512.95	0.459837
3	0	513.45	0.459834
3	0	513.95	0.459832
3	0	514.45	0.459832
3	0	514.95	0.459833
3	0	515.45	0.45983
3	0	515.95	0.459829
3	0	516.45	0.459828
3	0	516.95	0.459833
3	0	517.45	0.459833
3	0	517.95	0.459831
3	0	518.45	0.45983
3	0	518.95	0.459829
3	0	519.45	0.459829
3	0	519.95	0.459829
3	0	520.45	0.459828
3	0	520.95	0.459829
3	0	521.45	0.459826
3	0	521.95	0.459824
3	0	522.45	0.459829
3	0	522.95	0.459828
3	0	523.45	0.459828
3	0	523.95	0.459828
3	0	524.45	0.459827
3	0	524.95	0.459825
3	0	525.45	0.459822
3	0	525.95	0.459823
3	0	526.45	0.459826
3	0	526.95	0.459827
3	0	527.45	0.459827
3	0	527.95	0.459825
3	0	528.45	0.459824
3	0	528.95	0.459827
3	0	529.45	0.459827
3	0	529.95	0.459828
3	0	530.45	0.459826
3	0	530.95	0.459827
3	0	531.45	0.459829
3	0	531.95	0.459825
3	0	532.45	0.459828
3	0	532.95	0.459824
3	0	533.45	0.459825
3	0	533.95	0.459826
3	0	534.45	0.459825
3	0	534.95	0.459825
3	0	535.45	0.459827
3	0	535.95	0.459825
3	0	536.45	0.459824
3	0	536.95	0.459827
3	0	537.45	0.459826
3	0	537.95	0.459825
3	0	538.45	0.459824
3	0	538.95	0.459826
3	0	539.45	0.459823
3	0	539.95	0.459824
3	0	540.45	0.459821
3	0	540.95	0.459823
3	0	541.45	0.459823
3	0	541.95	0.459824
3	0	542.45	0.459821
3	0	542.609	0.459821