Folder: Thesis/Python/Data/RDE (part 8)

File: 240222-EIS-Fe2Fe3_5mM-HCl1M-0RPM-Ag_AgCl_BLF8-GC-RDE-5mVAmplitude_C15.mpt
EC-Lab ASCII FILE
Nb header lines : 66

Potentio Electrochemical Impedance Spectroscopy

Run on channel : 15 (SN 19485)
User :
Electrode connection : standard
Potential control : Ewe
Ewe ctrl range : min = -1.00 V, max = 1.00 V
Ewe,I filtering : <None>
Safety Limits :
	Do not start on E overload
Channel : Floating
Acquisition started on : 02/22/2024 15:05:17.607
Loaded Setting File :  NONE
Saved on :
	File : 240222-EIS-Fe2Fe3_5mM-HCl1M-0RPM-Ag_AgCl_BLF8-GC-RDE-5mVAmplitude_C15.mpr
	Directory : C:\Data\mathias\RDE-RPM-variation\
	Host : 192.168.0.1
Device : VMP-300 (SN 0826)
Address : USB
EC-Lab for windows v11.52 (software)
Internet server v11.52 (firmware)
Command interpretor v11.52 (firmware)
Electrode material :
Initial state :
Electrolyte :
Comments :
Cable : special
Electrode surface area : 0.001 cm²
Characteristic mass : 0.001 g
Equivalent Weight : 0.000 g/eq.
Density : 0.000 g/cm3
Volume (V) : 0.001 cm³
Record EIS quality indicators
Cycle Definition : Charge/Discharge alternance
Mode                Single sine
E (V)               0.0000
vs.                 Ref
tE (h:m:s)          0:01:0.0000
record              0
dI                  0.000
unit dI             mA
dt (s)              0.000
fi                  400.000
unit fi             kHz
ff                  100.000
unit ff             mHz
Nd                  10
Points              per decade
spacing             Logarithmic
Va (mV)             5.0
pw                  0.10
Na                  3
corr                0
E range min (V)     -1.000
E range max (V)     1.000
I Range             Auto
Bandwidth           8
nc cycles           2
goto Ns'            0
nr cycles           0
inc. cycle          1

freq/Hz	Re(Z)/Ohm	-Im(Z)/Ohm	|Z|/Ohm	Phase(Z)/deg	time/s	<Ewe>/V	<I>/mA	Cs/µF	Cp/µF	cycle number	I Range	|Ewe|/V	|I|/A	Ns	(Q-Qo)/mA.h	THD Ewe/%	NSD Ewe/%	NSR Ewe/%	|Ewe h2|/V	|Ewe h3|/V	|Ewe h4|/V	|Ewe h5|/V	|Ewe h6|/V	|Ewe h7|/V	THD I/%	NSD I/%	NSR I/%	|I h2|/A	|I h3|/A	|I h4|/A	|I h5|/A	|I h6|/A	|I h7|/A	Re(Y)/Ohm-1	Im(Y)/Ohm-1	|Y|/Ohm-1	Phase(Y)/deg	Re(C)/nF	Im(C)/nF	|C|/nF	Phase(C)/deg	Re(M)	Im(M)	|M|	Phase(M)/deg	Re(Permittivity)	Im(Permittivity)	|Permittivity|	Phase(Permittivity)/deg	Re(Resistivity)/Ohm.cm	Im(Resistivity)/Ohm.cm	|Resistivity|/Ohm.cm	Phase(Resistivity)/deg	Re(Conductivity)/mS/cm	Im(Conductivity)/mS/cm	|Conductivity|/mS/cm	Phase(Conductivity)/deg	Tan(Delta)	Loss Angle(Delta)/deg	dq/mA.h
399996	3.66247	1.5685	3.98421	-23.1836	62.9965	-0.000148684	-0.0301748	0.253677	0.0393155	1	38	0.00467674	0.00117382	0	-0.000608384	-1	-1	-1	0	0	0	0	0	0	-1	-1	-1	0	0	0	0	0	0	0.230723	0.0988098	0.250991	23.1836	39.3155	91.8026	99.8671	-66.8164	0.0000000E+000	0.0000000E+000	0.0000000E+000	66.8164	0.0000000E+000	0.0000000E+000	0.0000000E+000	-66.8164	0.0000000E+000	0.0000000E+000	0.0000000E+000	-23.1836	0.0000000E+000	0.0000000E+000	0.0000000E+000	23.1836	2.33502	66.8164	-0.000608384
20032.3	3.77692	2.22153	4.38182	-30.4634	77.9065	-0.000135561	-0.0305435	3.57634	0.919248	1	38	0.00519888	0.00118647	0	-0.000738021	1.52265	0.663162	25.9886	4.14838e-05	1.97378e-05	3.53775e-05	2.88571e-05	2.38871e-05	2.80404e-05	0.155942	0.0833747	2.43375	1.00321e-06	6.43047e-07	6.39581e-07	7.3346e-07	5.31851e-07	6.76251e-07	0.196711	0.115703	0.228216	30.4634	919.248	1562.86	1813.16	-59.5366	0.0000000E+000	0.0000000E+000	0.0000000E+000	59.5366	0.0000000E+000	0.0000000E+000	0.0000000E+000	-59.5366	0.0000000E+000	0.0000000E+000	0.0000000E+000	-30.4634	0.0000000E+000	0.0000000E+000	0.0000000E+000	30.4634	1.70015	59.5366	-1.16356e-05
1002.75	9.76204	33.0187	34.4315	-73.5296	93.1002	-0.000276634	-0.0245011	4.80692	4.42052	1	39	0.00501547	0.000145665	0	-0.000861392	1.70247	0.760107	25.7829	2.49044e-05	2.31051e-05	3.50572e-05	3.97581e-05	4.7426e-05	2.13998e-05	0.668799	0.340167	8.93553	3.96055e-07	5.80443e-07	2.80464e-07	4.79257e-07	2.27275e-07	2.01266e-07	0.00823431	0.0278514	0.0290431	73.5296	4420.52	1306.94	4609.68	-16.4704	0.0000000E+000	0.0000000E+000	0.0000000E+000	16.4704	0.0000000E+000	0.0000000E+000	0.0000000E+000	-16.4704	0.0000000E+000	0.0000000E+000	0.0000000E+000	-73.5296	0.0000000E+000	0.0000000E+000	0.0000000E+000	73.5296	0.295652	16.4704	-9.20256e-06
50.2089	112.105	399.838	415.256	-74.3378	107.858	-0.000250407	-0.0236754	7.92785	7.35006	1	40	0.00494562	1.19098e-05	0	-0.000958734	1.94246	0.964351	39.5526	3.84691e-05	3.90612e-05	4.94283e-05	4.05627e-05	1.68786e-05	2.75368e-05	1.23411	0.619296	21.394	7.0455e-08	5.06515e-08	8.40367e-08	6.07254e-08	1.05044e-08	3.61001e-08	0.000650117	0.00231874	0.00240815	74.3378	7350.06	2060.78	7633.49	-15.6622	0.0000000E+000	0.0000000E+000	0.0000000E+000	15.6622	0.0000000E+000	0.0000000E+000	0.0000000E+000	-15.6622	0.0000000E+000	0.0000000E+000	0.0000000E+000	-74.3378	0.0000000E+000	0.0000000E+000	0.0000000E+000	74.3378	0.280376	15.6622	-6.94667e-06
2.51368	1716.6	4471.63	4789.8	-68.9989	126.895	-0.000256816	-0.0239877	14.1594	12.3408	1	41	0.00490246	1.02352e-06	0	-0.00108373	1.12901	0.350512	19.7149	2.41622e-05	2.21649e-05	2.01701e-05	2.45384e-05	1.7455e-05	1.28557e-05	1.04897	0.417333	18.7841	4.05297e-09	3.9487e-09	3.77209e-09	5.22193e-09	4.49309e-09	3.27153e-09	7.48226e-05	0.000194909	0.000208777	68.9989	12340.8	4737.44	13218.8	-21.0011	0.0000000E+000	0.0000000E+000	0.0000000E+000	21.0011	0.0000000E+000	0.0000000E+000	0.0000000E+000	-21.0011	0.0000000E+000	0.0000000E+000	0.0000000E+000	-68.9989	0.0000000E+000	0.0000000E+000	0.0000000E+000	68.9989	0.383886	21.0011	-1.85781e-05
0.125939	21058.8	34436.8	40365.4	-58.5533	355.134	-0.000235033	-0.0232413	36.6976	26.7094	1	41	0.00490451	1.21503e-07	0	-0.00256617	0.150697	0.171854	4.17674	3.67122e-06	2.45796e-06	3.10861e-06	2.26749e-06	1.83396e-06	3.35729e-06	26.8038	114.628	52.1221	2.28139e-08	1.35761e-08	1.20668e-08	8.68179e-09	8.29125e-09	6.14021e-09	1.29245e-05	2.11351e-05	2.47737e-05	58.5533	26709.4	16333.4	31307.7	-31.4467	0.0000000E+000	0.0000000E+000	0.0000000E+000	31.4467	0.0000000E+000	0.0000000E+000	0.0000000E+000	-31.4467	0.0000000E+000	0.0000000E+000	0.0000000E+000	-58.5533	0.0000000E+000	0.0000000E+000	0.0000000E+000	58.5533	0.611521	31.4467	-0.000310827
31751	3.67595	1.55615	3.99177	-22.9445	431.889	-0.00017247	-0.0255013	3.22115	0.489534	2	38	0.00518361	0.00129858	0	-0.00307465	1.10337	1.03873	25.4688	2.58784e-05	2.32221e-05	1.71835e-05	2.27776e-05	1.66153e-05	2.08764e-05	0.129427	0.0542593	2.24836	9.47134e-07	4.50028e-07	9.73343e-07	5.16921e-07	3.65463e-07	4.47323e-07	0.230696	0.0976609	0.250516	22.9445	489.534	1156.38	1255.73	-67.0555	0.0000000E+000	0.0000000E+000	0.0000000E+000	67.0555	0.0000000E+000	0.0000000E+000	0.0000000E+000	-67.0555	0.0000000E+000	0.0000000E+000	0.0000000E+000	-22.9445	0.0000000E+000	0.0000000E+000	0.0000000E+000	22.9445	2.36221	67.0555	-7.17437e-06
[...]
2519.19	5.7334	15.0343	16.0904	-69.1254	800.912	-0.000294287	-0.0237232	4.20219	3.66866	3	38	0.00479454	0.000297975	0	-0.00539875	1.53678	0.620449	27.5021	2.73977e-05	2.7656e-05	3.67208e-05	2.72523e-05	2.7052e-05	2.07641e-05	0.640359	0.396492	9.74126	7.06942e-07	9.32995e-07	9.83348e-07	4.84187e-07	6.49614e-07	6.35602e-07	0.0221451	0.0580695	0.0621488	69.1254	3668.66	1399.06	3926.37	-20.8746	0.0000000E+000	0.0000000E+000	0.0000000E+000	20.8746	0.0000000E+000	0.0000000E+000	0.0000000E+000	-20.8746	0.0000000E+000	0.0000000E+000	0.0000000E+000	-69.1254	0.0000000E+000	0.0000000E+000	0.0000000E+000	69.1254	0.381355	20.8746	-7.40088e-06
126.171	56.5463	196.048	204.04	-73.9108	815.765	-0.000249978	-0.0219439	6.43424	5.94007	3	39	0.00489899	2.40099e-05	0	-0.0054909	1.31543	0.711512	26.3729	2.68433e-05	2.51881e-05	2.31295e-05	3.17276e-05	2.61806e-05	1.12053e-05	2.63123	1.69745	55.2024	3.23127e-07	1.83259e-07	2.74109e-07	3.05398e-07	1.91068e-07	1.4333e-07	0.00135823	0.00470903	0.00490099	73.9108	5940.07	1713.3	6182.22	-16.0892	0.0000000E+000	0.0000000E+000	0.0000000E+000	16.0892	0.0000000E+000	0.0000000E+000	0.0000000E+000	-16.0892	0.0000000E+000	0.0000000E+000	0.0000000E+000	-73.9108	0.0000000E+000	0.0000000E+000	0.0000000E+000	73.9108	0.28843	16.0892	-6.62326e-06
6.31569	741.118	2307.35	2423.45	-72.193	830.744	-0.000236892	-0.0219177	10.9216	9.90022	3	41	0.00491876	2.02966e-06	0	-0.00558055	1.82039	1.30584	36.4815	4.81125e-05	3.54978e-05	3.65177e-05	2.13422e-05	2.95185e-05	2.97818e-05	0.918988	0.684885	17.2794	8.31587e-09	7.89434e-09	4.81142e-09	8.22269e-09	7.2077e-09	4.77585e-09	0.000126188	0.000392867	0.000412635	72.193	9900.22	3179.94	10398.4	-17.807	0.0000000E+000	0.0000000E+000	0.0000000E+000	17.807	0.0000000E+000	0.0000000E+000	0.0000000E+000	-17.807	0.0000000E+000	0.0000000E+000	0.0000000E+000	-72.193	0.0000000E+000	0.0000000E+000	0.0000000E+000	72.193	0.321199	17.807	-8.30795e-06
0.316193	9389.99	20757.9	22783	-65.66	924.448	-0.000265447	-0.0217544	24.2485	20.1294	3	41	0.00489743	2.1496e-07	0	-0.00614684	0.373793	0.153884	6.78406	6.58197e-06	7.92712e-06	3.61733e-06	9.92547e-06	4.2797e-06	7.25208e-06	6.56304	21.2835	41.5087	1.00418e-08	6.41066e-09	5.25088e-09	3.69153e-09	2.90929e-09	2.94862e-09	1.80903e-05	3.99911e-05	4.38925e-05	65.66	20129.4	9105.69	22093.2	-24.34	0.0000000E+000	0.0000000E+000	0.0000000E+000	24.34	0.0000000E+000	0.0000000E+000	0.0000000E+000	-24.34	0.0000000E+000	0.0000000E+000	0.0000000E+000	-65.66	0.0000000E+000	0.0000000E+000	0.0000000E+000	65.66	0.452357	24.34	-0.000118151
0.0999518	18310.6	43172.6	46895.1	-67.0169	1129.03	-0.000240766	-0.0211997	36.8826	31.2595	3	41	0.00490326	1.04558e-07	0	-0.00736477	0.18329	0.146577	4.0861	4.3534e-06	2.7995e-06	3.31755e-06	2.54593e-06	4.50545e-06	2.04977e-06	26.1934	91.1013	51.1118	1.82986e-08	1.11064e-08	1.03195e-08	7.64138e-09	7.70655e-09	5.72459e-09	8.32624e-06	1.96315e-05	2.13242e-05	67.0169	31259.5	13258	33954.9	-22.9831	0.0000000E+000	0.0000000E+000	0.0000000E+000	22.9831	0.0000000E+000	0.0000000E+000	0.0000000E+000	-22.9831	0.0000000E+000	0.0000000E+000	0.0000000E+000	-67.0169	0.0000000E+000	0.0000000E+000	0.0000000E+000	67.0169	0.424127	22.9831	-0.000362698

File: 240223-OCV-EIS-Fe2Fe3_5mM-HCl1M-0RPM-Ag_AgCl_BLF8-GC-RDE-1minRestVSEoc-3ppf-14p1mVAmplitude_01_OCV_C15.mpt
EC-Lab ASCII FILE
Nb header lines : 47

Open Circuit Voltage

Run on channel : 15 (SN 19485)
User :
Electrode connection : standard
Potential control : Ewe
Ewe ctrl range : min = -1.00 V, max = 1.00 V
Ewe,I filtering : 50 kHz
Safety Limits :
	Do not start on E overload
Channel : Floating
Acquisition started on : 02/23/2024 16:29:27.631
Loaded Setting File :  NONE
Saved on :
	File : 240223-OCV-EIS-Fe2Fe3_5mM-HCl1M-0RPM-Ag_AgCl_BLF8-GC-RDE-1minRestVSEoc-3ppf-14p1mVAmplitude_01_OCV_C15.mpr
	Directory : C:\Data\mathias\RDE-RPM-variation\
	Host : 192.168.0.1
Device : VMP-300 (SN 0826)
Address : USB
EC-Lab for windows v11.52 (software)
Internet server v11.52 (firmware)
Command interpretor v11.52 (firmware)
Electrode material :
Initial state :
Electrolyte :
Comments :
Cable : special
Reference electrode : SCE Saturated Calomel Electrode (0.241 V)
Electrode surface area : 0.001 cm²
Characteristic mass : 0.001 g
Equivalent Weight : 0.000 g/eq.
Density : 0.000 g/cm3
Volume (V) : 0.001 cm³
Record EIS quality indicators
Cycle Definition : Charge/Discharge alternance
tR (h:m:s)          0:01:0.0000
dER/dt (mV/h)       1.0
record              <Ewe>
dER (mV)            0.00
dtR (s)             0.5000
E range min (V)     -1.000
E range max (V)     1.000

mode	error	time/s	<Ewe/V>
3	0	0.5	0.459588
3	0	1	0.459587
3	0	1.5	0.459591
3	0	2	0.459591
3	0	2.5	0.459596
3	0	3	0.459596
3	0	3.5	0.459597
3	0	4	0.4596
3	0	4.5	0.459597
3	0	5	0.459597
3	0	5.5	0.459597
3	0	6	0.459601
3	0	6.5	0.459604
3	0	7	0.459606
3	0	7.5	0.459607
3	0	8	0.459608
3	0	8.5	0.459609
3	0	9	0.459607
3	0	9.5	0.459602
3	0	10	0.459603
3	0	10.5	0.459605
3	0	11	0.459605
3	0	11.5	0.459605
3	0	12	0.459608
3	0	12.5	0.459609
3	0	13	0.459609
3	0	13.5	0.459609
3	0	14	0.459611
3	0	14.5	0.459612
3	0	15	0.459611
3	0	15.5	0.459613
3	0	16	0.459612
3	0	16.5	0.459614
3	0	17	0.459617
3	0	17.5	0.459617
3	0	18	0.459617
3	0	18.5	0.459613
3	0	19	0.459614
3	0	19.5	0.459612
3	0	20	0.459612
3	0	20.5	0.459615
3	0	21	0.459618
3	0	21.5	0.459618
3	0	22	0.459617
3	0	22.5	0.459621
3	0	23	0.459618
3	0	23.5	0.459618
3	0	24	0.459621
3	0	24.5	0.459622
3	0	25	0.459622
3	0	25.5	0.459623
3	0	26	0.459622
3	0	26.5	0.459622
3	0	27	0.45962
3	0	27.5	0.459617
3	0	28	0.459618
3	0	28.5	0.459617
3	0	29	0.459618
3	0	29.5	0.459619
3	0	30	0.459621
3	0	30.5	0.45962
3	0	31	0.45962
3	0	31.5	0.45962
3	0	32	0.459616
3	0	32.5	0.459615
3	0	33	0.459614
3	0	33.5	0.459616
3	0	34	0.459617
3	0	34.5	0.459618
3	0	35	0.459617
3	0	35.5	0.459615
3	0	36	0.459614
3	0	36.5	0.459613
3	0	37	0.459615
3	0	37.5	0.459614
3	0	38	0.459613
3	0	38.5	0.459616
3	0	39	0.459617
3	0	39.5	0.459618
3	0	40	0.459622
3	0	40.5	0.459621
3	0	41	0.459621
3	0	41.5	0.459623
3	0	42	0.459623
3	0	42.5	0.459624
3	0	43	0.459627
3	0	43.5	0.459628
3	0	44	0.459627
3	0	44.5	0.459629
3	0	45	0.45963
3	0	45.5	0.459629
3	0	46	0.459627
3	0	46.5	0.459625
3	0	47	0.459629
3	0	47.5	0.459631
3	0	48	0.45963
3	0	48.5	0.45963
3	0	49	0.459631
3	0	49.5	0.459631
3	0	50	0.459631
3	0	50.5	0.459634
3	0	51	0.45963
3	0	51.5	0.459633
3	0	52	0.459632
3	0	52.5	0.45963
3	0	53	0.459628
3	0	53.5	0.459627
3	0	54	0.45963
3	0	54.5	0.459631
3	0	55	0.459634
3	0	55.5	0.459632
3	0	56	0.459633
3	0	56.5	0.459633
3	0	57	0.459632
3	0	57.5	0.459633
3	0	58	0.459634
3	0	58.5	0.459635
3	0	59	0.459635
3	0	59.5	0.459636
3	0	59.9998	0.459637

File: 240223-OCV-EIS-Fe2Fe3_5mM-HCl1M-0RPM-Ag_AgCl_BLF8-GC-RDE-1minRestVSEoc-3ppf-14p1mVAmplitude_02_PEIS_C15.mpt
EC-Lab ASCII FILE
Nb header lines : 67

Potentio Electrochemical Impedance Spectroscopy

Run on channel : 15 (SN 19485)
User :
Electrode connection : standard
Potential control : Ewe
Ewe ctrl range : min = -1.00 V, max = 1.00 V
Ewe,I filtering : 50 kHz
Safety Limits :
	Do not start on E overload
Channel : Floating
Acquisition started on : 02/23/2024 16:29:27.631
Loaded Setting File :  NONE
Saved on :
	File : 240223-OCV-EIS-Fe2Fe3_5mM-HCl1M-0RPM-Ag_AgCl_BLF8-GC-RDE-1minRestVSEoc-3ppf-14p1mVAmplitude_02_PEIS_C15.mpr
	Directory : C:\Data\mathias\RDE-RPM-variation\
	Host : 192.168.0.1
Device : VMP-300 (SN 0826)
Address : USB
EC-Lab for windows v11.52 (software)
Internet server v11.52 (firmware)
Command interpretor v11.52 (firmware)
Electrode material :
Initial state :
Electrolyte :
Comments :
Cable : special
Reference electrode : SCE Saturated Calomel Electrode (0.241 V)
Electrode surface area : 0.001 cm²
Characteristic mass : 0.001 g
Equivalent Weight : 0.000 g/eq.
Density : 0.000 g/cm3
Volume (V) : 0.001 cm³
Record EIS quality indicators
Cycle Definition : Charge/Discharge alternance
Mode                Single sine
E (V)               0.0000
vs.                 Eoc
tE (h:m:s)          0:01:0.0000
record              0
dI                  0.000
unit dI             mA
dt (s)              0.000
fi                  1.000
unit fi             MHz
ff                  100.000
unit ff             mHz
Nd                  10
Points              per decade
spacing             Logarithmic
Va (mV)             14.1
pw                  0.10
Na                  3
corr                0
E range min (V)     -1.000
E range max (V)     1.000
I Range             Auto
Bandwidth           8
nc cycles           0
goto Ns'            0
nr cycles           0
inc. cycle          1

freq/Hz	Re(Z)/Ohm	-Im(Z)/Ohm	|Z|/Ohm	Phase(Z)/deg	time/s	<Ewe>/V	<I>/mA	Cs/µF	Cp/µF	cycle number	I Range	|Ewe|/V	|I|/A	Ns	(Q-Qo)/mA.h	THD Ewe/%	NSD Ewe/%	NSR Ewe/%	|Ewe h2|/V	|Ewe h3|/V	|Ewe h4|/V	|Ewe h5|/V	|Ewe h6|/V	|Ewe h7|/V	THD I/%	NSD I/%	NSR I/%	|I h2|/A	|I h3|/A	|I h4|/A	|I h5|/A	|I h6|/A	|I h7|/A	Re(Y)/Ohm-1	Im(Y)/Ohm-1	|Y|/Ohm-1	Phase(Y)/deg	Re(C)/nF	Im(C)/nF	|C|/nF	Phase(C)/deg	Re(M)	Im(M)	|M|	Phase(M)/deg	Re(Permittivity)	Im(Permittivity)	|Permittivity|	Phase(Permittivity)/deg	Re(Resistivity)/Ohm.cm	Im(Resistivity)/Ohm.cm	|Resistivity|/Ohm.cm	Phase(Resistivity)/deg	Re(Conductivity)/mS/cm	Im(Conductivity)/mS/cm	|Conductivity|/mS/cm	Phase(Conductivity)/deg	Tan(Delta)	Loss Angle(Delta)/deg	dq/mA.h
1.00002e+06	3.50734	4.09176	5.38924	-49.3978	123.187	0.459442	-0.0112166	0.0388958	0.0224216	1	38	0.0111413	0.00206733	0	-3.10571e-06	-1	-1	-1	0	0	0	0	0	0	-1	-1	-1	0	0	0	0	0	0	0.12076	0.140882	0.185555	49.3978	22.4216	19.2192	29.5315	-40.6022	0.0000000E+000	0.0000000E+000	0.0000000E+000	40.6022	0.0000000E+000	0.0000000E+000	0.0000000E+000	-40.6022	0.0000000E+000	0.0000000E+000	0.0000000E+000	-49.3978	0.0000000E+000	0.0000000E+000	0.0000000E+000	49.3978	0.857171	40.6022	-3.10571e-06
316230	3.43058	1.35243	3.68754	-21.5158	128.787	0.459432	-0.00175041	0.372135	0.0500563	1	38	0.0145551	0.00394709	0	-5.71497e-06	-1	-1	-1	0	0	0	0	0	0	-1	-1	-1	0	0	0	0	0	0	0.252286	0.0994585	0.271183	21.5158	50.0563	126.973	136.483	-68.4842	0.0000000E+000	0.0000000E+000	0.0000000E+000	68.4842	0.0000000E+000	0.0000000E+000	0.0000000E+000	-68.4842	0.0000000E+000	0.0000000E+000	0.0000000E+000	-21.5158	0.0000000E+000	0.0000000E+000	0.0000000E+000	21.5158	2.5366	68.4842	-6.33473e-06
100004	3.40269	1.05444	3.56232	-17.2173	134.523	0.459414	-0.0018826	1.50933	0.132239	1	38	0.0145763	0.00409181	0	-8.37141e-06	0.542702	0.303747	8.9641	2.77022e-05	3.723e-05	3.2378e-05	2.10419e-05	2.98723e-05	3.17931e-05	0.0738089	0.0324956	0.702422	2.26119e-06	1.17848e-06	8.45543e-07	3.39744e-07	7.23726e-07	9.02536e-07	0.268137	0.083091	0.280716	17.2173	132.239	426.737	446.757	-72.7827	0.0000000E+000	0.0000000E+000	0.0000000E+000	72.7827	0.0000000E+000	0.0000000E+000	0.0000000E+000	-72.7827	0.0000000E+000	0.0000000E+000	0.0000000E+000	-17.2173	0.0000000E+000	0.0000000E+000	0.0000000E+000	17.2173	3.22702	72.7827	-6.03577e-06
31621.1	3.58304	2.17218	4.19005	-31.2258	140.259	0.459393	-0.00209674	2.31711	0.622728	1	38	0.0146479	0.00349588	0	-1.15337e-06	0.452472	0.170165	9.07961	3.55783e-05	2.59301e-05	2.44891e-05	2.22271e-05	2.46353e-05	2.06129e-05	0.0579312	0.0484317	0.831173	3.40406e-07	1.14397e-06	1.04099e-06	1.01502e-06	4.05649e-07	5.00284e-07	0.204086	0.123725	0.23866	31.2258	622.728	1027.2	1201.22	-58.7742	0.0000000E+000	0.0000000E+000	0.0000000E+000	58.7742	0.0000000E+000	0.0000000E+000	0.0000000E+000	-58.7742	0.0000000E+000	0.0000000E+000	0.0000000E+000	-31.2258	0.0000000E+000	0.0000000E+000	0.0000000E+000	31.2258	1.64952	58.7742	6.37414e-06
10002.2	4.19755	5.92795	7.26361	-54.6979	145.995	0.459421	-0.00203163	2.68423	1.78782	1	38	0.0144654	0.00199149	0	-6.74057e-06	0.479272	0.235453	9.31179	3.83667e-05	2.21285e-05	2.92373e-05	1.55462e-05	1.80049e-05	2.49275e-05	0.222462	0.0548762	1.45296	4.1108e-06	8.43262e-07	8.19675e-07	8.36843e-07	3.74403e-07	5.36966e-07	0.0795593	0.112357	0.137673	54.6979	1787.82	1265.94	2190.64	-35.3021	0.0000000E+000	0.0000000E+000	0.0000000E+000	35.3021	0.0000000E+000	0.0000000E+000	0.0000000E+000	-35.3021	0.0000000E+000	0.0000000E+000	0.0000000E+000	-54.6979	0.0000000E+000	0.0000000E+000	0.0000000E+000	54.6979	0.708095	35.3021	8.00332e-07
3163.04	6.34315	16.5631	17.7362	-69.0447	151.775	0.459285	-0.00248597	3.0379	2.64934	1	38	0.0139649	0.000787366	0	-1.40765e-05	0.530806	0.287272	9.50014	4.29162e-05	3.7158e-05	1.76273e-05	2.2554e-05	2.64128e-05	1.85078e-05	0.804462	0.0977295	3.65453	5.58849e-06	2.56147e-06	7.87688e-07	8.69555e-07	6.74297e-07	3.09384e-07	0.0201644	0.0526528	0.0563819	69.0447	2649.34	1014.61	2836.98	-20.9553	0.0000000E+000	0.0000000E+000	0.0000000E+000	20.9553	0.0000000E+000	0.0000000E+000	0.0000000E+000	-20.9553	0.0000000E+000	0.0000000E+000	0.0000000E+000	-69.0447	0.0000000E+000	0.0000000E+000	0.0000000E+000	69.0447	0.382969	20.9553	-1.28633e-06
999.682	13.5715	44.9442	46.9486	-73.1976	157.559	0.459281	-0.000493555	3.54229	3.24629	1	39	0.0140496	0.000299254	0	-1.69588e-05	0.588065	0.259951	9.19636	3.38823e-05	2.67105e-05	2.9009e-05	2.93587e-05	1.34516e-05	3.35621e-05	1.21973	0.137881	4.47937	3.03263e-06	1.83158e-06	2.48487e-07	7.42359e-07	6.81164e-08	3.48053e-07	0.00615719	0.0203906	0.0212999	73.1976	3246.29	980.26	3391.06	-16.8024	0.0000000E+000	0.0000000E+000	0.0000000E+000	16.8024	0.0000000E+000	0.0000000E+000	0.0000000E+000	-16.8024	0.0000000E+000	0.0000000E+000	0.0000000E+000	-73.1976	0.0000000E+000	0.0000000E+000	0.0000000E+000	73.1976	0.301963	16.8024	1.3646e-08
316.316	36.3637	116.57	122.11	-72.6748	163.087	0.459329	-0.000183052	4.31631	3.93353	1	39	0.0129888	0.000106369	0	-1.72932e-05	0.559258	0.293208	10.0323	2.36371e-05	1.62914e-05	1.45144e-05	4.02818e-05	3.83784e-05	2.40896e-05	1.17355	0.360617	12.61	9.06251e-07	4.48691e-07	2.04656e-07	4.91007e-07	2.85036e-07	3.04765e-07	0.00243874	0.00781778	0.00818933	72.6748	3933.53	1227.05	4120.48	-17.3252	0.0000000E+000	0.0000000E+000	0.0000000E+000	17.3252	0.0000000E+000	0.0000000E+000	0.0000000E+000	-17.3252	0.0000000E+000	0.0000000E+000	0.0000000E+000	-72.6748	0.0000000E+000	0.0000000E+000	0.0000000E+000	72.6748	0.311947	17.3252	-1.5948e-08
[...]
9.99682	1035.33	1356.37	1706.36	-52.6454	179.877	0.45934	-6.62575e-05	11.7376	7.41649	1	41	0.0128939	7.55643e-06	0	-1.7931e-05	1.01697	0.6706	19.9969	3.97582e-05	5.31237e-05	2.71157e-05	7.23655e-05	3.96221e-05	4.96622e-05	0.933626	0.237598	6.65344	5.25314e-08	3.06663e-08	8.04763e-09	2.95664e-08	8.07832e-09	1.30619e-08	0.000355581	0.000465844	0.000586044	52.6454	7416.5	5661.04	9330.16	-37.3546	0.0000000E+000	0.0000000E+000	0.0000000E+000	37.3546	0.0000000E+000	0.0000000E+000	0.0000000E+000	-37.3546	0.0000000E+000	0.0000000E+000	0.0000000E+000	-52.6454	0.0000000E+000	0.0000000E+000	0.0000000E+000	52.6454	0.763304	37.3546	-7.39198e-08
3.16296	2541.42	1716.48	3066.78	-34.0352	188.318	0.459337	-6.35959e-05	29.3148	9.18335	1	41	0.0128772	4.19893e-06	0	-1.80496e-05	0.464175	0.279487	8.80391	1.82911e-05	2.5205e-05	2.27492e-05	2.3852e-05	1.91908e-05	2.44524e-05	0.845407	0.20138	5.51079	3.04372e-08	1.45835e-08	4.19688e-09	6.72174e-09	3.98815e-09	3.93283e-09	0.000270216	0.000182505	0.000326075	34.0352	9183.35	13596.9	16407.6	-55.9648	0.0000000E+000	0.0000000E+000	0.0000000E+000	55.9648	0.0000000E+000	0.0000000E+000	0.0000000E+000	-55.9648	0.0000000E+000	0.0000000E+000	0.0000000E+000	-34.0352	0.0000000E+000	0.0000000E+000	0.0000000E+000	34.0352	1.4806	55.9648	2.92434e-08
1.00006	3845.31	1215.7	4032.91	-17.5444	211.739	0.459341	-6.10206e-05	130.908	11.8955	1	42	0.0128668	3.19046e-06	0	-1.86155e-05	0.237141	0.0998414	4.83179	1.16286e-05	1.24972e-05	8.37367e-06	1.39473e-05	1.51725e-05	6.72841e-06	0.774394	0.0624657	0.990326	2.19937e-08	1.0453e-08	3.80243e-10	4.07442e-09	6.15205e-10	3.99157e-10	0.000236426	7.47463e-05	0.00024796	17.5444	11895.5	37626	39461.7	-72.4556	0.0000000E+000	0.0000000E+000	0.0000000E+000	72.4556	0.0000000E+000	0.0000000E+000	0.0000000E+000	-72.4556	0.0000000E+000	0.0000000E+000	0.0000000E+000	-17.5444	0.0000000E+000	0.0000000E+000	0.0000000E+000	17.5444	3.16305	72.4556	-3.57218e-07
0.316193	4447.08	707.677	4503.03	-9.04184	277.536	0.459338	-6.22588e-05	711.268	17.5668	1	42	0.0128678	2.85759e-06	0	-1.94357e-05	0.176288	0.0884658	2.62841	3.53121e-06	1.10488e-05	9.0631e-06	1.04471e-05	6.57373e-06	8.3243e-06	0.787483	0.0365881	1.13101	2.06191e-08	8.6989e-09	3.15402e-10	2.24072e-09	4.3819e-10	1.64599e-10	0.000219313	3.49e-05	0.000222073	9.04184	17566.8	110391	111780	-80.9582	0.0000000E+000	0.0000000E+000	0.0000000E+000	80.9582	0.0000000E+000	0.0000000E+000	0.0000000E+000	-80.9582	0.0000000E+000	0.0000000E+000	0.0000000E+000	-9.04184	0.0000000E+000	0.0000000E+000	0.0000000E+000	9.04184	6.28405	80.9582	8.90888e-08
0.0999518	4753.3	466.919	4776.18	-5.61019	482.118	0.459331	-5.80669e-05	3410.26	32.5919	1	42	0.0128615	2.69284e-06	0	-2.37569e-05	0.111779	0.0576652	1.5542	3.10926e-06	7.35988e-06	3.77806e-06	9.63908e-06	2.17176e-06	3.5025e-06	0.804583	0.0527618	1.29545	2.01135e-08	7.77661e-09	2.97281e-10	2.04877e-09	9.44329e-11	2.00352e-10	0.000208369	2.04682e-05	0.000209372	5.61019	32591.9	331790	333387	-84.3898	0.0000000E+000	0.0000000E+000	0.0000000E+000	84.3898	0.0000000E+000	0.0000000E+000	0.0000000E+000	-84.3898	0.0000000E+000	0.0000000E+000	0.0000000E+000	-5.61019	0.0000000E+000	0.0000000E+000	0.0000000E+000	5.61019	10.1801	84.3898	-8.64434e-07