Folder: Thesis/Python/Data/RDE (part 10)

File: 240223-OCV-EIS-Fe2Fe3_5mM-HCl1M-0RPM-Ag_AgCl_BLF8-GC-RDE-1minRestVSEoc-3ppf-14p1mVAmplitude_06_PEIS_C15.mpt
EC-Lab ASCII FILE
Nb header lines : 67

Potentio Electrochemical Impedance Spectroscopy

Run on channel : 15 (SN 19485)
User :
Electrode connection : standard
Potential control : Ewe
Ewe ctrl range : min = -1.00 V, max = 1.00 V
Ewe,I filtering : 50 kHz
Safety Limits :
	Do not start on E overload
Channel : Floating
Acquisition started on : 02/23/2024 16:29:27.631
Loaded Setting File :  NONE
Saved on :
	File : 240223-OCV-EIS-Fe2Fe3_5mM-HCl1M-0RPM-Ag_AgCl_BLF8-GC-RDE-1minRestVSEoc-3ppf-14p1mVAmplitude_06_PEIS_C15.mpr
	Directory : C:\Data\mathias\RDE-RPM-variation\
	Host : 192.168.0.1
Device : VMP-300 (SN 0826)
Address : USB
EC-Lab for windows v11.52 (software)
Internet server v11.52 (firmware)
Command interpretor v11.52 (firmware)
Electrode material :
Initial state :
Electrolyte :
Comments :
Cable : special
Reference electrode : SCE Saturated Calomel Electrode (0.241 V)
Electrode surface area : 0.001 cm²
Characteristic mass : 0.001 g
Equivalent Weight : 0.000 g/eq.
Density : 0.000 g/cm3
Volume (V) : 0.001 cm³
Record EIS quality indicators
Cycle Definition : Charge/Discharge alternance
Mode                Single sine
E (V)               0.0000
vs.                 Eoc
tE (h:m:s)          0:01:0.0000
record              0
dI                  0.000
unit dI             mA
dt (s)              0.000
fi                  1.000
unit fi             MHz
ff                  100.000
unit ff             mHz
Nd                  10
Points              per decade
spacing             Logarithmic
Va (mV)             14.1
pw                  0.10
Na                  3
corr                0
E range min (V)     -1.000
E range max (V)     1.000
I Range             Auto
Bandwidth           8
nc cycles           0
goto Ns'            0
nr cycles           0
inc. cycle          1

freq/Hz	Re(Z)/Ohm	-Im(Z)/Ohm	|Z|/Ohm	Phase(Z)/deg	time/s	<Ewe>/V	<I>/mA	Cs/µF	Cp/µF	cycle number	I Range	|Ewe|/V	|I|/A	Ns	(Q-Qo)/mA.h	THD Ewe/%	NSD Ewe/%	NSR Ewe/%	|Ewe h2|/V	|Ewe h3|/V	|Ewe h4|/V	|Ewe h5|/V	|Ewe h6|/V	|Ewe h7|/V	THD I/%	NSD I/%	NSR I/%	|I h2|/A	|I h3|/A	|I h4|/A	|I h5|/A	|I h6|/A	|I h7|/A	Re(Y)/Ohm-1	Im(Y)/Ohm-1	|Y|/Ohm-1	Phase(Y)/deg	Re(C)/nF	Im(C)/nF	|C|/nF	Phase(C)/deg	Re(M)	Im(M)	|M|	Phase(M)/deg	Re(Permittivity)	Im(Permittivity)	|Permittivity|	Phase(Permittivity)/deg	Re(Resistivity)/Ohm.cm	Im(Resistivity)/Ohm.cm	|Resistivity|/Ohm.cm	Phase(Resistivity)/deg	Re(Conductivity)/mS/cm	Im(Conductivity)/mS/cm	|Conductivity|/mS/cm	Phase(Conductivity)/deg	Tan(Delta)	Loss Angle(Delta)/deg	dq/mA.h
1.00002e+06	3.51964	4.07666	5.38582	-49.1939	1087.74	0.459302	-0.00940493	0.0390398	0.0223673	1	38	0.0111347	0.0020674	0	-6.96311e-06	-1	-1	-1	0	0	0	0	0	0	-1	-1	-1	0	0	0	0	0	0	0.121337	0.14054	0.185673	49.1939	22.3673	19.3111	29.5502	-40.8061	0.0000000E+000	0.0000000E+000	0.0000000E+000	40.8061	0.0000000E+000	0.0000000E+000	0.0000000E+000	-40.8061	0.0000000E+000	0.0000000E+000	0.0000000E+000	-49.1939	0.0000000E+000	0.0000000E+000	0.0000000E+000	49.1939	0.863363	40.8061	-6.96311e-06
316230	3.43521	1.36326	3.69583	-21.6456	1093.34	0.459301	-0.000182663	0.36918	0.050231	1	38	0.0145955	0.00394918	0	-1.7887e-05	-1	-1	-1	0	0	0	0	0	0	-1	-1	-1	0	0	0	0	0	0	0.251495	0.0998056	0.270575	21.6456	50.231	126.575	136.177	-68.3544	0.0000000E+000	0.0000000E+000	0.0000000E+000	68.3544	0.0000000E+000	0.0000000E+000	0.0000000E+000	-68.3544	0.0000000E+000	0.0000000E+000	0.0000000E+000	-21.6456	0.0000000E+000	0.0000000E+000	0.0000000E+000	21.6456	2.51985	68.3544	-3.2284e-06
100004	3.4002	1.05325	3.5596	-17.211	1099.07	0.45934	-0.000283204	1.51102	0.132293	1	38	0.0145703	0.00409324	0	-1.51892e-05	0.491018	0.285217	8.88888	2.17019e-05	1.20172e-05	2.297e-05	2.84527e-05	3.95216e-05	3.45269e-05	0.0656018	0.021358	0.707971	1.89741e-06	1.20404e-06	7.06807e-07	7.61985e-07	5.9812e-07	5.0974e-07	0.268351	0.083125	0.280931	17.211	132.293	427.078	447.098	-72.789	0.0000000E+000	0.0000000E+000	0.0000000E+000	72.789	0.0000000E+000	0.0000000E+000	0.0000000E+000	-72.789	0.0000000E+000	0.0000000E+000	0.0000000E+000	-17.211	0.0000000E+000	0.0000000E+000	0.0000000E+000	17.211	3.22828	72.789	2.65638e-06
31621.1	3.58666	2.17667	4.19548	-31.2526	1104.81	0.459309	-0.000750564	2.31234	0.622403	1	38	0.0146674	0.00349601	0	-1.14889e-06	0.47406	0.237543	8.51808	1.90766e-05	2.76573e-05	2.43296e-05	1.90627e-05	3.26476e-05	2.69705e-05	0.0464573	0.0557399	0.823605	2.95095e-07	9.53257e-07	5.36599e-07	6.81325e-07	4.31516e-07	6.20215e-07	0.203764	0.12366	0.238352	31.2526	622.403	1025.58	1199.67	-58.7474	0.0000000E+000	0.0000000E+000	0.0000000E+000	58.7474	0.0000000E+000	0.0000000E+000	0.0000000E+000	-58.7474	0.0000000E+000	0.0000000E+000	0.0000000E+000	-31.2526	0.0000000E+000	0.0000000E+000	0.0000000E+000	31.2526	1.64778	58.7474	3.59155e-06
10002.2	4.19	5.94329	7.27178	-54.8163	1110.54	0.459305	-0.000247894	2.6773	1.78842	1	38	0.0146323	0.0020122	0	8.95898e-06	0.41903	0.259609	8.68986	2.68219e-05	1.55572e-05	2.94613e-05	1.42994e-05	2.74201e-05	2.37807e-05	0.190041	0.0594975	1.42733	3.47398e-06	4.74084e-07	7.36962e-07	8.8631e-07	5.43514e-07	4.72305e-07	0.0792377	0.112395	0.137518	54.8163	1788.42	1260.83	2188.18	-35.1837	0.0000000E+000	0.0000000E+000	0.0000000E+000	35.1837	0.0000000E+000	0.0000000E+000	0.0000000E+000	-35.1837	0.0000000E+000	0.0000000E+000	0.0000000E+000	-54.8163	0.0000000E+000	0.0000000E+000	0.0000000E+000	54.8163	0.704996	35.1837	4.36335e-06
3163.04	6.34156	16.6111	17.7804	-69.1048	1116.32	0.459176	-0.00131854	3.02913	2.64381	1	38	0.0139779	0.000786141	0	7.37689e-06	0.626184	0.303135	9.3194	4.34844e-05	1.94461e-05	3.31679e-05	3.15714e-05	3.69941e-05	3.73436e-05	0.860371	0.139047	3.70191	6.08886e-06	2.50792e-06	5.47673e-07	6.96591e-07	6.69307e-07	7.989e-07	0.0200592	0.0525429	0.0562417	69.1048	2643.81	1009.32	2829.92	-20.8952	0.0000000E+000	0.0000000E+000	0.0000000E+000	20.8952	0.0000000E+000	0.0000000E+000	0.0000000E+000	-20.8952	0.0000000E+000	0.0000000E+000	0.0000000E+000	-69.1048	0.0000000E+000	0.0000000E+000	0.0000000E+000	69.1048	0.381767	20.8952	-2.27666e-07
999.682	13.6098	44.9391	46.9547	-73.1511	1122.11	0.459164	-0.000384337	3.5427	3.24507	1	39	0.0140311	0.000298823	0	5.55933e-06	0.603768	0.326781	9.11991	4.12159e-05	4.39224e-05	1.71695e-05	3.0368e-05	2.71259e-05	1.98718e-05	1.21113	0.181107	4.45144	2.95644e-06	1.86049e-06	2.62877e-07	7.40851e-07	2.91158e-07	3.26087e-07	0.00617295	0.0203829	0.0212971	73.1511	3245.07	982.768	3390.62	-16.8489	0.0000000E+000	0.0000000E+000	0.0000000E+000	16.8489	0.0000000E+000	0.0000000E+000	0.0000000E+000	-16.8489	0.0000000E+000	0.0000000E+000	0.0000000E+000	-73.1511	0.0000000E+000	0.0000000E+000	0.0000000E+000	73.1511	0.30285	16.8489	-8.88237e-08
316.316	36.5711	117.331	122.898	-72.6881	1127.64	0.459175	7.82511e-05	4.28832	3.90859	1	39	0.0130097	0.000105858	0	5.86061e-06	0.57532	0.265637	9.69337	1.95642e-05	3.36517e-05	4.19039e-05	2.51748e-05	2.88771e-05	2.08387e-05	1.16904	0.270983	12.5157	8.06768e-07	4.86641e-07	3.19049e-07	3.9296e-07	3.27708e-07	2.64104e-07	0.00242129	0.00776821	0.00813681	72.6881	3908.59	1218.28	4094.05	-17.3119	0.0000000E+000	0.0000000E+000	0.0000000E+000	17.3119	0.0000000E+000	0.0000000E+000	0.0000000E+000	-17.3119	0.0000000E+000	0.0000000E+000	0.0000000E+000	-72.6881	0.0000000E+000	0.0000000E+000	0.0000000E+000	72.6881	0.311692	17.3119	7.46324e-08
[...]
9.99682	1048.19	1359.3	1716.51	-52.3632	1144.43	0.459173	-4.6728e-05	11.7124	7.34483	1	41	0.0129205	7.52719e-06	0	5.57501e-06	0.871333	0.619413	19.3236	2.68391e-05	5.12736e-05	5.41674e-05	3.53255e-05	2.85243e-05	5.06185e-05	1.03485	0.190097	6.45284	6.07293e-08	2.93171e-08	1.01171e-08	3.48356e-08	5.56331e-09	7.83985e-09	0.000355754	0.000461343	0.000582579	52.3632	7344.83	5663.81	9274.98	-37.6368	0.0000000E+000	0.0000000E+000	0.0000000E+000	37.6368	0.0000000E+000	0.0000000E+000	0.0000000E+000	-37.6368	0.0000000E+000	0.0000000E+000	0.0000000E+000	-52.3632	0.0000000E+000	0.0000000E+000	0.0000000E+000	52.3632	0.771128	37.6368	-2.84417e-08
3.16296	2546.01	1722.43	3073.92	-34.0792	1152.87	0.459209	-4.83336e-05	29.2136	9.17244	1	41	0.0128797	4.18999e-06	0	5.4357e-06	0.42731	0.245353	8.78802	1.80823e-05	2.25188e-05	2.83396e-05	1.03971e-05	1.69364e-05	2.00598e-05	0.866528	0.185716	5.45767	3.09153e-08	1.44589e-08	6.12257e-09	7.93756e-09	3.51145e-09	3.9845e-09	0.000269449	0.000182288	0.000325318	34.0792	9172.44	13558.2	16369.5	-55.9208	0.0000000E+000	0.0000000E+000	0.0000000E+000	55.9208	0.0000000E+000	0.0000000E+000	0.0000000E+000	-55.9208	0.0000000E+000	0.0000000E+000	0.0000000E+000	-34.0792	0.0000000E+000	0.0000000E+000	0.0000000E+000	34.0792	1.47815	55.9208	-3.12343e-08
1.00006	3854.44	1216.69	4041.91	-17.5188	1176.29	0.459226	-4.92636e-05	130.802	11.8522	1	42	0.0128706	3.18428e-06	0	5.11583e-06	0.241417	0.182115	4.81252	1.43233e-05	5.25612e-06	1.08946e-05	7.59203e-06	1.45897e-05	1.51658e-05	0.763413	0.0558134	0.991351	2.19107e-08	9.78994e-09	5.30876e-10	3.66091e-09	7.71497e-10	4.09355e-10	0.000235933	7.44743e-05	0.000247408	17.5188	11852.2	37547.5	39373.7	-72.4812	0.0000000E+000	0.0000000E+000	0.0000000E+000	72.4812	0.0000000E+000	0.0000000E+000	0.0000000E+000	-72.4812	0.0000000E+000	0.0000000E+000	0.0000000E+000	-17.5188	0.0000000E+000	0.0000000E+000	0.0000000E+000	17.5188	3.16797	72.4812	-1.58379e-07
0.316193	4455.46	707.413	4511.27	-9.0218	1242.09	0.459222	-4.76637e-05	711.533	17.4962	1	42	0.0128602	2.85068e-06	0	4.05744e-06	0.172312	0.0642594	2.58675	4.11488e-06	1.00083e-05	1.05217e-05	1.06456e-05	7.11016e-06	7.83841e-06	0.775515	0.0596895	1.12675	2.01396e-08	8.67541e-09	4.33319e-10	2.64588e-09	4.59146e-10	4.12981e-10	0.000218925	3.47597e-05	0.000221667	9.0218	17496.2	110195	111576	-80.9782	0.0000000E+000	0.0000000E+000	0.0000000E+000	80.9782	0.0000000E+000	0.0000000E+000	0.0000000E+000	-80.9782	0.0000000E+000	0.0000000E+000	0.0000000E+000	-9.0218	0.0000000E+000	0.0000000E+000	0.0000000E+000	9.0218	6.29824	80.9782	-1.15689e-07
0.0999518	4769.22	467.47	4792.07	-5.59814	1446.67	0.45924	-3.93609e-05	3406.25	32.4143	1	42	0.0128663	2.68492e-06	0	6.39252e-07	0.127583	0.0463783	1.5562	3.68142e-06	1.01925e-05	3.21447e-06	9.36895e-06	3.53824e-06	4.57924e-06	0.77987	0.0638542	1.26051	1.93961e-08	7.61367e-09	2.88936e-10	1.98332e-09	2.02604e-10	1.82182e-10	0.000207683	2.03567e-05	0.000208678	5.59814	32414.3	330697	332282	-84.4019	0.0000000E+000	0.0000000E+000	0.0000000E+000	84.4019	0.0000000E+000	0.0000000E+000	0.0000000E+000	-84.4019	0.0000000E+000	0.0000000E+000	0.0000000E+000	-5.59814	0.0000000E+000	0.0000000E+000	0.0000000E+000	5.59814	10.2022	84.4019	-1.31522e-06

File: 240223-OCV-EIS-Fe2Fe3_5mM-HCl1M-0RPM-Ag_AgCl_BLF8-GC-RDE-1minRestVSEoc-3ppf-14p1mVAmplitude_07_OCV_C15.mpt
EC-Lab ASCII FILE
Nb header lines : 47

Open Circuit Voltage

Run on channel : 15 (SN 19485)
User :
Electrode connection : standard
Potential control : Ewe
Ewe ctrl range : min = -1.00 V, max = 1.00 V
Ewe,I filtering : 50 kHz
Safety Limits :
	Do not start on E overload
Channel : Floating
Acquisition started on : 02/23/2024 16:29:27.631
Loaded Setting File :  NONE
Saved on :
	File : 240223-OCV-EIS-Fe2Fe3_5mM-HCl1M-0RPM-Ag_AgCl_BLF8-GC-RDE-1minRestVSEoc-3ppf-14p1mVAmplitude_07_OCV_C15.mpr
	Directory : C:\Data\mathias\RDE-RPM-variation\
	Host : 192.168.0.1
Device : VMP-300 (SN 0826)
Address : USB
EC-Lab for windows v11.52 (software)
Internet server v11.52 (firmware)
Command interpretor v11.52 (firmware)
Electrode material :
Initial state :
Electrolyte :
Comments :
Cable : special
Reference electrode : SCE Saturated Calomel Electrode (0.241 V)
Electrode surface area : 0.001 cm²
Characteristic mass : 0.001 g
Equivalent Weight : 0.000 g/eq.
Density : 0.000 g/cm3
Volume (V) : 0.001 cm³
Record EIS quality indicators
Cycle Definition : Charge/Discharge alternance
tR (h:m:s)          0:01:0.0000
dER/dt (mV/h)       1.0
record              <Ewe>
dER (mV)            0.00
dtR (s)             0.5000
E range min (V)     -1.000
E range max (V)     1.000

mode	error	time/s	<Ewe/V>
3	0	1447.17	0.458147
3	0	1447.67	0.458621
3	0	1448.17	0.458795
3	0	1448.67	0.458886
3	0	1449.17	0.458942
3	0	1449.67	0.458983
3	0	1450.17	0.459016
3	0	1450.67	0.459037
3	0	1451.17	0.459057
3	0	1451.67	0.459075
3	0	1452.17	0.459091
3	0	1452.67	0.459106
3	0	1453.17	0.459119
3	0	1453.67	0.459127
3	0	1454.17	0.459135
3	0	1454.67	0.459145
3	0	1455.17	0.459154
3	0	1455.67	0.459163
3	0	1456.17	0.459171
3	0	1456.67	0.459176
3	0	1457.17	0.45918
3	0	1457.67	0.459184
3	0	1458.17	0.459188
3	0	1458.67	0.459189
3	0	1459.17	0.459192
3	0	1459.67	0.459194
3	0	1460.17	0.459197
3	0	1460.67	0.459201
3	0	1461.17	0.459202
3	0	1461.67	0.459205
3	0	1462.17	0.459207
3	0	1462.67	0.459208
3	0	1463.17	0.459215
3	0	1463.67	0.459216
3	0	1464.17	0.459223
3	0	1464.67	0.459227
3	0	1465.17	0.45923
3	0	1465.67	0.45923
3	0	1466.17	0.459234
3	0	1466.67	0.459239
3	0	1467.17	0.459241
3	0	1467.67	0.459239
3	0	1468.17	0.45924
3	0	1468.67	0.45924
3	0	1469.17	0.45924
3	0	1469.67	0.459243
3	0	1470.17	0.459244
3	0	1470.67	0.459245
3	0	1471.17	0.459244
3	0	1471.67	0.459248
3	0	1472.17	0.459251
3	0	1472.67	0.45925
3	0	1473.17	0.459252
3	0	1473.67	0.459254
3	0	1474.17	0.459257
3	0	1474.67	0.45926
3	0	1475.17	0.459263
3	0	1475.67	0.459262
3	0	1476.17	0.459263
3	0	1476.67	0.459262
3	0	1477.17	0.459263
3	0	1477.67	0.459267
3	0	1478.17	0.459268
3	0	1478.67	0.459269
3	0	1479.17	0.459272
3	0	1479.67	0.459272
3	0	1480.17	0.459278
3	0	1480.67	0.459279
3	0	1481.17	0.459277
3	0	1481.67	0.459278
3	0	1482.17	0.459276
3	0	1482.67	0.459278
3	0	1483.17	0.459278
3	0	1483.67	0.459278
3	0	1484.17	0.459279
3	0	1484.67	0.45928
3	0	1485.17	0.459281
3	0	1485.67	0.459281
3	0	1486.17	0.459281
3	0	1486.67	0.459281
3	0	1487.17	0.459282
3	0	1487.67	0.459281
3	0	1488.17	0.459283
3	0	1488.67	0.459284
3	0	1489.17	0.459284
3	0	1489.67	0.459285
3	0	1490.17	0.459289
3	0	1490.67	0.45929
3	0	1491.17	0.45929
3	0	1491.67	0.459288
3	0	1492.17	0.459289
3	0	1492.67	0.45929
3	0	1493.17	0.45929
3	0	1493.67	0.459291
3	0	1494.17	0.459292
3	0	1494.67	0.459292
3	0	1495.17	0.459294
3	0	1495.67	0.459294
3	0	1496.17	0.459294
3	0	1496.67	0.459294
3	0	1497.17	0.459294
3	0	1497.67	0.459299
3	0	1498.17	0.459299
3	0	1498.67	0.4593
3	0	1499.17	0.4593
3	0	1499.67	0.459301
3	0	1500.17	0.459299
3	0	1500.67	0.459301
3	0	1501.17	0.459301
3	0	1501.67	0.459304
3	0	1502.17	0.459305
3	0	1502.67	0.459304
3	0	1503.17	0.459302
3	0	1503.67	0.459305
3	0	1504.17	0.459307
3	0	1504.67	0.459307
3	0	1505.17	0.459308
3	0	1505.67	0.459309
3	0	1506.17	0.45931
3	0	1506.67	0.459311
3	0	1506.83	0.459312

File: 240223-OCV-EIS-Fe2Fe3_5mM-HCl1M-0RPM-Ag_AgCl_BLF8-GC-RDE-5minVsOCV-5ppf-3scans-14p1mVAmplitude-1MHz_100mHz_01_OCV_C15.mpt
EC-Lab ASCII FILE
Nb header lines : 47

Open Circuit Voltage

Run on channel : 15 (SN 19485)
User :
Electrode connection : standard
Potential control : Ewe
Ewe ctrl range : min = -1.00 V, max = 1.00 V
Ewe,I filtering : 50 kHz
Safety Limits :
	Do not start on E overload
Channel : Floating
Acquisition started on : 02/23/2024 11:36:28.401
Loaded Setting File :  NONE
Saved on :
	File : 240223-OCV-EIS-Fe2Fe3_5mM-HCl1M-0RPM-Ag_AgCl_BLF8-GC-RDE-5minVsOCV-5ppf-3scans-14p1mVAmplitude-1MHz_100mHz_01_OCV_C15.mpr
	Directory : C:\Data\mathias\RDE-RPM-variation\
	Host : 192.168.0.1
Device : VMP-300 (SN 0826)
Address : USB
EC-Lab for windows v11.52 (software)
Internet server v11.52 (firmware)
Command interpretor v11.52 (firmware)
Electrode material :
Initial state :
Electrolyte :
Comments :
Cable : special
Reference electrode : SCE Saturated Calomel Electrode (0.241 V)
Electrode surface area : 0.001 cm²
Characteristic mass : 0.001 g
Equivalent Weight : 0.000 g/eq.
Density : 0.000 g/cm3
Volume (V) : 0.001 cm³
Record EIS quality indicators
Cycle Definition : Charge/Discharge alternance
tR (h:m:s)          0:01:0.0000
dER/dt (mV/h)       1.0
record              <Ewe>
dER (mV)            0.00
dtR (s)             0.5000
E range min (V)     -1.000
E range max (V)     1.000

mode	error	time/s	<Ewe/V>
3	1	0.5	0.462607
3	0	1	0.462606
3	0	1.5	0.462608
3	0	2	0.462607
3	0	2.5	0.462604
3	0	3	0.462603
3	0	3.5	0.462604
3	0	4	0.462604
3	0	4.5	0.462604
3	0	5	0.462604
3	0	5.5	0.462601
3	0	6	0.462604
3	0	6.5	0.462604
3	0	7	0.462603
3	0	7.5	0.462602
3	0	8	0.462602
3	0	8.5	0.462602
3	0	9	0.462602
3	0	9.5	0.4626
3	0	10	0.462598
3	0	10.5	0.462585
3	0	11	0.462588
3	0	11.5	0.462587
3	0	12	0.462585
3	0	12.5	0.462585
3	0	13	0.462586
3	0	13.5	0.462589
3	0	14	0.462588
3	0	14.5	0.462588
3	0	15	0.462588
3	0	15.5	0.462588
3	0	16	0.462586
3	0	16.5	0.462588
3	0	17	0.462589
3	0	17.5	0.46259
3	0	18	0.462587
3	0	18.5	0.462586
3	0	19	0.462581
3	0	19.5	0.462582
3	0	20	0.462584
3	0	20.5	0.462583
3	0	21	0.462584
3	0	21.5	0.462583
3	0	22	0.462583
3	0	22.5	0.462584
3	0	23	0.462581
3	0	23.5	0.462583
3	0	24	0.46258
3	0	24.5	0.462578
3	0	25	0.462583
3	0	25.5	0.462581
3	0	26	0.462578
3	0	26.5	0.462582
3	0	27	0.462585
3	0	27.5	0.462584
3	0	28	0.462579
3	0	28.5	0.462578
3	0	29	0.462576
3	0	29.5	0.462572
3	0	30	0.462572
3	0	30.5	0.462571
3	0	31	0.462571
3	0	31.5	0.462569
3	0	32	0.462569
3	0	32.5	0.46257
3	0	33	0.462568
3	0	33.5	0.462569
3	0	34	0.462569
3	0	34.5	0.462569
3	0	35	0.46257
3	0	35.5	0.462568
3	0	36	0.462568
3	0	36.5	0.462567
3	0	37	0.462565
3	0	37.5	0.46257
3	0	38	0.462575
3	0	38.5	0.462572
3	0	39	0.46257
3	0	39.5	0.462568
3	0	40	0.462563
3	0	40.5	0.462564
3	0	41	0.462564
3	0	41.5	0.462564
3	0	42	0.462563
3	0	42.5	0.462562
3	0	43	0.462561
3	0	43.5	0.462564
3	0	44	0.462564
3	0	44.5	0.462561
3	0	45	0.462564
3	0	45.5	0.462567
3	0	46	0.462565
3	0	46.5	0.462562
3	0	47	0.462561
3	0	47.5	0.462559
3	0	48	0.462559
3	0	48.5	0.462558
3	0	49	0.462563
3	0	49.5	0.462561
3	0	50	0.462559
3	0	50.5	0.462558
3	0	51	0.462557
3	0	51.5	0.46256
3	0	52	0.462561
3	0	52.5	0.462558
3	0	53	0.462558
3	0	53.5	0.46256
3	0	54	0.462558
3	0	54.5	0.462556
3	0	55	0.462555
3	0	55.5	0.462552
3	0	56	0.462552
3	0	56.5	0.462551
3	0	57	0.462549
3	0	57.5	0.462549
3	0	58	0.46255
3	0	58.5	0.462548
3	0	59	0.46255
3	0	59.5	0.46255
3	0	59.9998	0.462551