Folder: Thesis/Python/Data/RDE (part 11)

File: 240223-OCV-EIS-Fe2Fe3_5mM-HCl1M-0RPM-Ag_AgCl_BLF8-GC-RDE-5minVsOCV-5ppf-3scans-14p1mVAmplitude-1MHz_100mHz_02_PEIS_C15.mpt
EC-Lab ASCII FILE
Nb header lines : 67

Potentio Electrochemical Impedance Spectroscopy

Run on channel : 15 (SN 19485)
User :
Electrode connection : standard
Potential control : Ewe
Ewe ctrl range : min = -1.00 V, max = 1.00 V
Ewe,I filtering : 50 kHz
Safety Limits :
	Do not start on E overload
Channel : Floating
Acquisition started on : 02/23/2024 11:36:28.401
Loaded Setting File :  NONE
Saved on :
	File : 240223-OCV-EIS-Fe2Fe3_5mM-HCl1M-0RPM-Ag_AgCl_BLF8-GC-RDE-5minVsOCV-5ppf-3scans-14p1mVAmplitude-1MHz_100mHz_02_PEIS_C15.mpr
	Directory : C:\Data\mathias\RDE-RPM-variation\
	Host : 192.168.0.1
Device : VMP-300 (SN 0826)
Address : USB
EC-Lab for windows v11.52 (software)
Internet server v11.52 (firmware)
Command interpretor v11.52 (firmware)
Electrode material :
Initial state :
Electrolyte :
Comments :
Cable : special
Reference electrode : SCE Saturated Calomel Electrode (0.241 V)
Electrode surface area : 0.001 cm²
Characteristic mass : 0.001 g
Equivalent Weight : 0.000 g/eq.
Density : 0.000 g/cm3
Volume (V) : 0.001 cm³
Record EIS quality indicators
Cycle Definition : Charge/Discharge alternance
Mode                Single sine
E (V)               0.0000
vs.                 Ref
tE (h:m:s)          0:05:0.0000
record              0
dI                  0.000
unit dI             mA
dt (s)              0.000
fi                  1.000
unit fi             MHz
ff                  100.000
unit ff             mHz
Nd                  10
Points              per decade
spacing             Logarithmic
Va (mV)             14.1
pw                  0.10
Na                  5
corr                0
E range min (V)     -1.000
E range max (V)     1.000
I Range             Auto
Bandwidth           8
nc cycles           2
goto Ns'            0
nr cycles           0
inc. cycle          1

freq/Hz	Re(Z)/Ohm	-Im(Z)/Ohm	|Z|/Ohm	Phase(Z)/deg	time/s	<Ewe>/V	<I>/mA	Cs/µF	Cp/µF	cycle number	I Range	|Ewe|/V	|I|/A	Ns	(Q-Qo)/mA.h	THD Ewe/%	NSD Ewe/%	NSR Ewe/%	|Ewe h2|/V	|Ewe h3|/V	|Ewe h4|/V	|Ewe h5|/V	|Ewe h6|/V	|Ewe h7|/V	THD I/%	NSD I/%	NSR I/%	|I h2|/A	|I h3|/A	|I h4|/A	|I h5|/A	|I h6|/A	|I h7|/A	Re(Y)/Ohm-1	Im(Y)/Ohm-1	|Y|/Ohm-1	Phase(Y)/deg	Re(C)/nF	Im(C)/nF	|C|/nF	Phase(C)/deg	Re(M)	Im(M)	|M|	Phase(M)/deg	Re(Permittivity)	Im(Permittivity)	|Permittivity|	Phase(Permittivity)/deg	Re(Resistivity)/Ohm.cm	Im(Resistivity)/Ohm.cm	|Resistivity|/Ohm.cm	Phase(Resistivity)/deg	Re(Conductivity)/mS/cm	Im(Conductivity)/mS/cm	|Conductivity|/mS/cm	Phase(Conductivity)/deg	Tan(Delta)	Loss Angle(Delta)/deg	dq/mA.h
1.00002e+06	4.16867	3.97429	5.75958	-43.6326	363.398	-0.000162795	-0.0224887	0.0400454	0.0190673	1	38	0.0116598	0.00202441	0	-0.00184423	-1	-1	-1	0	0	0	0	0	0	-1	-1	-1	0	0	0	0	0	0	0.125665	0.119806	0.173624	43.6326	19.0673	19.9999	27.6326	-46.3674	0.0000000E+000	0.0000000E+000	0.0000000E+000	46.3674	0.0000000E+000	0.0000000E+000	0.0000000E+000	-46.3674	0.0000000E+000	0.0000000E+000	0.0000000E+000	-43.6326	0.0000000E+000	0.0000000E+000	0.0000000E+000	43.6326	1.04891	46.3674	-0.00184423
39814.1	3.98968	1.84195	4.39435	-24.7818	388.649	-0.000157352	-0.0236226	2.17022	0.381305	1	38	0.0146362	0.00333069	0	-0.00202215	0.522693	0.277539	8.99146	2.62857e-05	3.12323e-05	2.54309e-05	2.62453e-05	1.70237e-05	4.01718e-05	0.0582705	0.0768359	0.86403	7.30148e-07	8.2974e-07	7.78268e-07	6.72791e-07	7.11503e-07	6.20241e-07	0.206609	0.095387	0.227565	24.7818	381.305	825.908	909.68	-65.2182	0.0000000E+000	0.0000000E+000	0.0000000E+000	65.2182	0.0000000E+000	0.0000000E+000	0.0000000E+000	-65.2182	0.0000000E+000	0.0000000E+000	0.0000000E+000	-24.7818	0.0000000E+000	0.0000000E+000	0.0000000E+000	24.7818	2.166	65.2182	-9.70417e-06
1584.49	9.5429	32.2543	33.6364	-73.5184	414.309	-0.000285693	-0.022014	3.11417	2.86351	1	38	0.0131827	0.000391919	0	-0.0021899	0.547544	0.258279	9.88516	2.11456e-05	2.36768e-05	2.98107e-05	3.65795e-05	2.86664e-05	2.4195e-05	0.602679	0.254973	7.40979	1.30156e-06	1.12576e-06	6.21886e-07	9.63903e-07	5.6489e-07	6.19797e-07	0.00843454	0.0285081	0.0297297	73.5184	2863.51	847.211	2986.21	-16.4816	0.0000000E+000	0.0000000E+000	0.0000000E+000	16.4816	0.0000000E+000	0.0000000E+000	0.0000000E+000	-16.4816	0.0000000E+000	0.0000000E+000	0.0000000E+000	-73.5184	0.0000000E+000	0.0000000E+000	0.0000000E+000	73.5184	0.295864	16.4816	-1.12537e-05
63.0823	159.679	468.727	495.179	-71.1878	440.308	-0.000313785	-0.0181156	5.38261	4.8229	1	40	0.0129359	2.61238e-05	0	-0.00232163	0.807326	0.465714	14.8485	3.01414e-05	4.43809e-05	3.79278e-05	4.09106e-05	3.30892e-05	5.01225e-05	0.791838	0.26966	9.83142	1.33872e-07	9.07982e-08	5.13016e-08	7.43314e-08	4.97291e-08	6.83488e-08	0.000651213	0.00191159	0.00201947	71.1878	4822.9	1642.99	5095.08	-18.8122	0.0000000E+000	0.0000000E+000	0.0000000E+000	18.8122	0.0000000E+000	0.0000000E+000	0.0000000E+000	-18.8122	0.0000000E+000	0.0000000E+000	0.0000000E+000	-71.1878	0.0000000E+000	0.0000000E+000	0.0000000E+000	71.1878	0.340665	18.8122	-8.96704e-06
2.51085	2455.23	5188.29	5739.9	-64.6753	473.353	-0.000270314	-0.0180534	12.2173	9.98194	1	41	0.0128591	2.2403e-06	0	-0.00248756	0.476025	0.202994	7.37966	1.92129e-05	2.463e-05	2.57687e-05	1.73036e-05	2.40226e-05	2.61079e-05	0.864766	0.332126	8.90245	1.4168e-08	6.53259e-09	5.0626e-09	6.14693e-09	4.16894e-09	5.6095e-09	7.45218e-05	0.000157476	0.000174219	64.6753	9981.94	4723.72	11043.2	-25.3247	0.0000000E+000	0.0000000E+000	0.0000000E+000	25.3247	0.0000000E+000	0.0000000E+000	0.0000000E+000	-25.3247	0.0000000E+000	0.0000000E+000	0.0000000E+000	-64.6753	0.0000000E+000	0.0000000E+000	0.0000000E+000	64.6753	0.473226	25.3247	-2.32259e-05
0.0999518	26280.5	43504	50825.8	-58.8641	953.014	-0.000265171	-0.0180301	36.6017	26.8158	1	41	0.0128652	2.53123e-07	0	-0.00486903	0.152858	0.0453728	1.46563	4.04923e-06	1.22902e-05	4.68478e-06	1.12118e-05	4.2585e-06	3.51573e-06	5.9669	23.4835	17.8322	1.14848e-08	5.17459e-09	5.55844e-09	3.95253e-09	2.88391e-09	3.04187e-09	1.01734e-05	1.68407e-05	1.96751e-05	58.8641	26815.8	16199.2	31328.9	-31.1359	0.0000000E+000	0.0000000E+000	0.0000000E+000	31.1359	0.0000000E+000	0.0000000E+000	0.0000000E+000	-31.1359	0.0000000E+000	0.0000000E+000	0.0000000E+000	-58.8641	0.0000000E+000	0.0000000E+000	0.0000000E+000	58.8641	0.604093	31.1359	-0.000507293
50122.5	3.94029	1.52907	4.22657	-21.2092	979.891	-0.000169208	-0.0195989	2.07664	0.271792	2	38	0.0145961	0.0034534	0	-0.00502729	0.452292	0.337817	8.9474	4.0932e-05	1.72306e-05	2.08273e-05	1.84981e-05	2.08206e-05	1.84659e-05	0.0740358	0.0297292	0.83514	1.24829e-06	1.28889e-06	1.0304e-06	1.01092e-06	6.35442e-07	6.52148e-07	0.220572	0.0855952	0.236598	21.2092	271.792	700.388	751.275	-68.7908	0.0000000E+000	0.0000000E+000	0.0000000E+000	68.7908	0.0000000E+000	0.0000000E+000	0.0000000E+000	-68.7908	0.0000000E+000	0.0000000E+000	0.0000000E+000	-21.2092	0.0000000E+000	0.0000000E+000	0.0000000E+000	21.2092	2.57693	68.7908	-8.21005e-06
[...]
2512.41	6.99708	21.0954	22.2256	-71.65	1596.76	-0.000285041	-0.0194817	3.0029	2.70528	3	38	0.0139229	0.000626438	0	-0.00805178	0.524003	0.25012	9.26703	2.46216e-05	1.67339e-05	2.71636e-05	3.0128e-05	2.93671e-05	2.9267e-05	0.555662	0.123095	4.59212	1.98866e-06	2.41451e-06	5.24822e-07	1.11155e-06	4.16276e-07	4.91725e-07	0.0141648	0.0427054	0.0449932	71.65	2705.28	897.306	2850.21	-18.35	0.0000000E+000	0.0000000E+000	0.0000000E+000	18.35	0.0000000E+000	0.0000000E+000	0.0000000E+000	-18.35	0.0000000E+000	0.0000000E+000	0.0000000E+000	-71.65	0.0000000E+000	0.0000000E+000	0.0000000E+000	71.65	0.331687	18.35	-1.08241e-05
99.9682	102.015	330.284	345.68	-72.8355	1622.86	-0.000249139	-0.0171413	4.82027	4.40046	3	40	0.0133615	3.86529e-05	0	-0.00817946	0.761603	0.584386	14.652	4.38676e-05	3.95929e-05	2.99692e-05	4.03291e-05	1.63536e-05	4.07533e-05	0.734497	0.197607	6.784	1.58207e-07	1.30041e-07	4.73102e-08	1.63828e-07	3.7408e-08	6.38113e-08	0.000853726	0.00276401	0.00289285	72.8355	4400.46	1359.18	4605.59	-17.1645	0.0000000E+000	0.0000000E+000	0.0000000E+000	17.1645	0.0000000E+000	0.0000000E+000	0.0000000E+000	-17.1645	0.0000000E+000	0.0000000E+000	0.0000000E+000	-72.8355	0.0000000E+000	0.0000000E+000	0.0000000E+000	72.8355	0.308872	17.1645	-8.32559e-06
3.9819	1674.15	3962.88	4302	-67.098	1651.01	-0.000231496	-0.0170287	10.086	8.55855	3	41	0.013172	3.06183e-06	0	-0.00831181	0.511312	0.309098	9.35361	3.01589e-05	1.86342e-05	2.41961e-05	1.98604e-05	2.21148e-05	3.62211e-05	0.762952	0.227021	8.31495	1.73232e-08	9.99355e-09	4.29326e-09	6.05963e-09	4.32835e-09	6.29229e-09	9.04592e-05	0.000214127	0.00023245	67.098	8558.55	3615.62	9290.93	-22.902	0.0000000E+000	0.0000000E+000	0.0000000E+000	22.902	0.0000000E+000	0.0000000E+000	0.0000000E+000	-22.902	0.0000000E+000	0.0000000E+000	0.0000000E+000	-67.098	0.0000000E+000	0.0000000E+000	0.0000000E+000	67.098	0.422457	22.9019	-1.49947e-05
0.158419	20585.5	35667.6	41181.8	-60.0087	1956.65	-0.000243591	-0.0170391	28.167	21.1289	3	41	0.0131733	3.19883e-07	0	-0.00976377	0.124037	0.0516828	1.74928	4.81209e-06	1.05318e-05	3.824e-06	8.40191e-06	3.64663e-06	3.42513e-06	5.72972	22.0276	18.7108	1.34285e-08	8.00799e-09	5.78126e-09	5.17828e-09	3.64711e-09	3.57164e-09	1.21381e-05	2.10312e-05	2.42826e-05	60.0087	21128.9	12194.5	24395.4	-29.9913	0.0000000E+000	0.0000000E+000	0.0000000E+000	29.9913	0.0000000E+000	0.0000000E+000	0.0000000E+000	-29.9913	0.0000000E+000	0.0000000E+000	0.0000000E+000	-60.0087	0.0000000E+000	0.0000000E+000	0.0000000E+000	60.0087	0.577148	29.9913	-0.000304463
0.0999518	28917.1	46238.1	54535.9	-57.9783	2139.13	-0.000258778	-0.0171301	34.4373	24.7551	3	41	0.0131705	2.41502e-07	0	-0.0106321	0.130985	0.0536541	1.44839	5.74798e-06	1.18416e-05	2.79979e-06	8.88961e-06	3.12662e-06	3.31621e-06	5.17446	18.4901	19.3081	8.96135e-09	5.16766e-09	4.44627e-09	4.19385e-09	3.03311e-09	2.71698e-09	9.72277e-06	1.55466e-05	1.83365e-05	57.9783	24755.1	15481.7	29197.6	-32.0217	0.0000000E+000	0.0000000E+000	0.0000000E+000	32.0217	0.0000000E+000	0.0000000E+000	0.0000000E+000	-32.0217	0.0000000E+000	0.0000000E+000	0.0000000E+000	-57.9783	0.0000000E+000	0.0000000E+000	0.0000000E+000	57.9783	0.625395	32.0217	-0.000484304

File: 240223-OCV-EIS-Fe2Fe3_5mM-HCl1M-225RPM-Ag_AgCl_BLF8-GC-RDE-1minRestVSEoc-3ppf-14p1mVAmplitude_01_OCV_C15.mpt
EC-Lab ASCII FILE
Nb header lines : 47

Open Circuit Voltage

Run on channel : 15 (SN 19485)
User :
Electrode connection : standard
Potential control : Ewe
Ewe ctrl range : min = -1.00 V, max = 1.00 V
Ewe,I filtering : 50 kHz
Safety Limits :
	Do not start on E overload
Channel : Floating
Acquisition started on : 02/23/2024 15:54:32.363
Loaded Setting File :  NONE
Saved on :
	File : 240223-OCV-EIS-Fe2Fe3_5mM-HCl1M-225RPM-Ag_AgCl_BLF8-GC-RDE-1minRestVSEoc-3ppf-14p1mVAmplitude_01_OCV_C15.mpr
	Directory : C:\Data\mathias\RDE-RPM-variation\
	Host : 192.168.0.1
Device : VMP-300 (SN 0826)
Address : USB
EC-Lab for windows v11.52 (software)
Internet server v11.52 (firmware)
Command interpretor v11.52 (firmware)
Electrode material :
Initial state :
Electrolyte :
Comments :
Cable : special
Reference electrode : SCE Saturated Calomel Electrode (0.241 V)
Electrode surface area : 0.001 cm²
Characteristic mass : 0.001 g
Equivalent Weight : 0.000 g/eq.
Density : 0.000 g/cm3
Volume (V) : 0.001 cm³
Record EIS quality indicators
Cycle Definition : Charge/Discharge alternance
tR (h:m:s)          0:01:0.0000
dER/dt (mV/h)       1.0
record              <Ewe>
dER (mV)            0.00
dtR (s)             0.5000
E range min (V)     -1.000
E range max (V)     1.000

mode	error	time/s	<Ewe/V>
3	0	0.5	0.459667
3	0	1	0.459665
3	0	1.5	0.459663
3	0	2	0.459667
3	0	2.5	0.459667
3	0	3	0.459669
3	0	3.5	0.459666
3	0	4	0.459667
3	0	4.5	0.459668
3	0	5	0.459667
3	0	5.5	0.459665
3	0	6	0.459667
3	0	6.5	0.459671
3	0	7	0.459673
3	0	7.5	0.459673
3	0	8	0.459674
3	0	8.5	0.459674
3	0	9	0.459672
3	0	9.5	0.459673
3	0	10	0.459674
3	0	10.5	0.459673
3	0	11	0.459674
3	0	11.5	0.459673
3	0	12	0.459672
3	0	12.5	0.459671
3	0	13	0.459669
3	0	13.5	0.459668
3	0	14	0.459668
3	0	14.5	0.459666
3	0	15	0.459665
3	0	15.5	0.45967
3	0	16	0.45967
3	0	16.5	0.459672
3	0	17	0.45967
3	0	17.5	0.459666
3	0	18	0.459665
3	0	18.5	0.459664
3	0	19	0.459666
3	0	19.5	0.459665
3	0	20	0.459663
3	0	20.5	0.459662
3	0	21	0.459662
3	0	21.5	0.45966
3	0	22	0.459659
3	0	22.5	0.45966
3	0	23	0.459664
3	0	23.5	0.459664
3	0	24	0.459668
3	0	24.5	0.459665
3	0	25	0.459665
3	0	25.5	0.459666
3	0	26	0.459666
3	0	26.5	0.459667
3	0	27	0.459666
3	0	27.5	0.459667
3	0	28	0.459669
3	0	28.5	0.459669
3	0	29	0.459671
3	0	29.5	0.459671
3	0	30	0.459668
3	0	30.5	0.459667
3	0	31	0.459672
3	0	31.5	0.459671
3	0	32	0.459674
3	0	32.5	0.459671
3	0	33	0.459667
3	0	33.5	0.459665
3	0	34	0.459665
3	0	34.5	0.459665
3	0	35	0.459666
3	0	35.5	0.459665
3	0	36	0.459661
3	0	36.5	0.459659
3	0	37	0.459661
3	0	37.5	0.459659
3	0	38	0.459661
3	0	38.5	0.459662
3	0	39	0.459661
3	0	39.5	0.459657
3	0	40	0.459658
3	0	40.5	0.459661
3	0	41	0.459662
3	0	41.5	0.459662
3	0	42	0.459663
3	0	42.5	0.459659
3	0	43	0.459645
3	0	43.5	0.459649
3	0	44	0.459656
3	0	44.5	0.459658
3	0	45	0.459658
3	0	45.5	0.45966
3	0	46	0.459663
3	0	46.5	0.459665
3	0	47	0.459666
3	0	47.5	0.459665
3	0	48	0.459665
3	0	48.5	0.459662
3	0	49	0.45966
3	0	49.5	0.45966
3	0	50	0.459659
3	0	50.5	0.459659
3	0	51	0.459659
3	0	51.5	0.459658
3	0	52	0.459656
3	0	52.5	0.459654
3	0	53	0.459656
3	0	53.5	0.459659
3	0	54	0.459658
3	0	54.5	0.459658
3	0	55	0.459659
3	0	55.5	0.459659
3	0	56	0.459657
3	0	56.5	0.459657
3	0	56.5764	0.45966

File: 240223-OCV-EIS-Fe2Fe3_5mM-HCl1M-225RPM-Ag_AgCl_BLF8-GC-RDE-1minRestVSEoc-3ppf-14p1mVAmplitude_02_PEIS_C15.mpt
EC-Lab ASCII FILE
Nb header lines : 67

Potentio Electrochemical Impedance Spectroscopy

Run on channel : 15 (SN 19485)
User :
Electrode connection : standard
Potential control : Ewe
Ewe ctrl range : min = -1.00 V, max = 1.00 V
Ewe,I filtering : 50 kHz
Safety Limits :
	Do not start on E overload
Channel : Floating
Acquisition started on : 02/23/2024 15:54:32.363
Loaded Setting File :  NONE
Saved on :
	File : 240223-OCV-EIS-Fe2Fe3_5mM-HCl1M-225RPM-Ag_AgCl_BLF8-GC-RDE-1minRestVSEoc-3ppf-14p1mVAmplitude_02_PEIS_C15.mpr
	Directory : C:\Data\mathias\RDE-RPM-variation\
	Host : 192.168.0.1
Device : VMP-300 (SN 0826)
Address : USB
EC-Lab for windows v11.52 (software)
Internet server v11.52 (firmware)
Command interpretor v11.52 (firmware)
Electrode material :
Initial state :
Electrolyte :
Comments :
Cable : special
Reference electrode : SCE Saturated Calomel Electrode (0.241 V)
Electrode surface area : 0.001 cm²
Characteristic mass : 0.001 g
Equivalent Weight : 0.000 g/eq.
Density : 0.000 g/cm3
Volume (V) : 0.001 cm³
Record EIS quality indicators
Cycle Definition : Charge/Discharge alternance
Mode                Single sine
E (V)               0.0000
vs.                 Eoc
tE (h:m:s)          0:01:0.0000
record              0
dI                  0.000
unit dI             mA
dt (s)              0.000
fi                  1.000
unit fi             MHz
ff                  100.000
unit ff             mHz
Nd                  10
Points              per decade
spacing             Logarithmic
Va (mV)             14.1
pw                  0.10
Na                  3
corr                0
E range min (V)     -1.000
E range max (V)     1.000
I Range             Auto
Bandwidth           8
nc cycles           0
goto Ns'            0
nr cycles           0
inc. cycle          1

freq/Hz	Re(Z)/Ohm	-Im(Z)/Ohm	|Z|/Ohm	Phase(Z)/deg	time/s	<Ewe>/V	<I>/mA	Cs/µF	Cp/µF	cycle number	I Range	|Ewe|/V	|I|/A	Ns	(Q-Qo)/mA.h	THD Ewe/%	NSD Ewe/%	NSR Ewe/%	|Ewe h2|/V	|Ewe h3|/V	|Ewe h4|/V	|Ewe h5|/V	|Ewe h6|/V	|Ewe h7|/V	THD I/%	NSD I/%	NSR I/%	|I h2|/A	|I h3|/A	|I h4|/A	|I h5|/A	|I h6|/A	|I h7|/A	Re(Y)/Ohm-1	Im(Y)/Ohm-1	|Y|/Ohm-1	Phase(Y)/deg	Re(C)/nF	Im(C)/nF	|C|/nF	Phase(C)/deg	Re(M)	Im(M)	|M|	Phase(M)/deg	Re(Permittivity)	Im(Permittivity)	|Permittivity|	Phase(Permittivity)/deg	Re(Resistivity)/Ohm.cm	Im(Resistivity)/Ohm.cm	|Resistivity|/Ohm.cm	Phase(Resistivity)/deg	Re(Conductivity)/mS/cm	Im(Conductivity)/mS/cm	|Conductivity|/mS/cm	Phase(Conductivity)/deg	Tan(Delta)	Loss Angle(Delta)/deg	dq/mA.h
1.00002e+06	3.51357	4.08623	5.3891	-49.3093	119.761	0.459536	-0.0117342	0.0389483	0.0223925	1	38	0.01114	0.00206714	0	-3.42335e-06	-1	-1	-1	0	0	0	0	0	0	-1	-1	-1	0	0	0	0	0	0	0.12098	0.140699	0.18556	49.3093	22.3925	19.2543	29.5322	-40.6907	0.0000000E+000	0.0000000E+000	0.0000000E+000	40.6907	0.0000000E+000	0.0000000E+000	0.0000000E+000	-40.6907	0.0000000E+000	0.0000000E+000	0.0000000E+000	-49.3093	0.0000000E+000	0.0000000E+000	0.0000000E+000	49.3093	0.859855	40.6907	-3.42335e-06
316230	3.43905	1.35847	3.69763	-21.5546	125.362	0.459532	-0.00118996	0.370483	0.0500056	1	38	0.0145869	0.00394494	0	-2.78537e-06	-1	-1	-1	0	0	0	0	0	0	-1	-1	-1	0	0	0	0	0	0	0.251531	0.0993578	0.270444	21.5546	50.0056	126.593	136.111	-68.4454	0.0000000E+000	0.0000000E+000	0.0000000E+000	68.4454	0.0000000E+000	0.0000000E+000	0.0000000E+000	-68.4454	0.0000000E+000	0.0000000E+000	0.0000000E+000	-21.5546	0.0000000E+000	0.0000000E+000	0.0000000E+000	21.5546	2.53157	68.4454	-2.42645e-06
100004	3.41317	1.05902	3.57369	-17.2379	131.097	0.459544	-0.000901365	1.50279	0.13197	1	38	0.0145136	0.00406123	0	-1.70476e-05	0.550324	0.296468	9.15164	1.87547e-05	2.28326e-05	4.18718e-05	3.53507e-05	3.94723e-05	1.24901e-05	0.0665494	0.0493717	0.708822	1.44916e-06	1.42379e-06	7.70918e-07	4.42284e-07	1.03197e-06	8.57761e-07	0.267254	0.0829225	0.279823	17.2379	131.97	425.333	445.336	-72.7621	0.0000000E+000	0.0000000E+000	0.0000000E+000	72.7621	0.0000000E+000	0.0000000E+000	0.0000000E+000	-72.7621	0.0000000E+000	0.0000000E+000	0.0000000E+000	-17.2379	0.0000000E+000	0.0000000E+000	0.0000000E+000	17.2379	3.22294	72.7621	-5.95986e-06
31621.1	3.61007	2.16856	4.21133	-30.9931	136.832	0.459538	-0.00229038	2.32098	0.615426	1	38	0.0147237	0.00349621	0	-3.61463e-05	0.494549	0.329503	8.90948	3.15314e-05	2.6598e-05	3.40735e-05	2.09023e-05	2.66404e-05	2.36414e-05	0.0554339	0.0893275	0.822959	7.50087e-07	9.69083e-07	7.08813e-07	7.81722e-07	7.96232e-07	4.0871e-07	0.203553	0.122274	0.237455	30.9931	615.426	1024.52	1195.15	-59.0069	0.0000000E+000	0.0000000E+000	0.0000000E+000	59.0069	0.0000000E+000	0.0000000E+000	0.0000000E+000	-59.0069	0.0000000E+000	0.0000000E+000	0.0000000E+000	-30.9931	0.0000000E+000	0.0000000E+000	0.0000000E+000	30.9931	1.66473	59.0069	-4.47608e-06
10002.2	4.21824	5.90153	7.25407	-54.444	142.564	0.459512	-0.00173558	2.69624	1.78453	1	38	0.014564	0.0020077	0	-6.25914e-05	0.518792	0.346015	9.14827	3.42171e-05	2.2058e-05	2.82215e-05	3.07923e-05	3.48558e-05	2.30078e-05	0.195752	0.185184	1.45207	3.72963e-06	6.73753e-07	6.90559e-07	3.78085e-07	3.99385e-07	2.15912e-07	0.0801617	0.11215	0.137854	54.444	1784.53	1275.53	2193.52	-35.556	0.0000000E+000	0.0000000E+000	0.0000000E+000	35.556	0.0000000E+000	0.0000000E+000	0.0000000E+000	-35.556	0.0000000E+000	0.0000000E+000	0.0000000E+000	-54.444	0.0000000E+000	0.0000000E+000	0.0000000E+000	54.444	0.71477	35.556	-3.59284e-06
3163.04	6.37483	16.4209	17.6149	-68.7831	148.348	0.459383	-0.00286022	3.06421	2.66289	1	38	0.0139508	0.000791986	0	-6.95026e-05	0.454515	0.266176	9.59679	3.04497e-05	1.94015e-05	2.66942e-05	1.74155e-05	2.26998e-05	1.8919e-05	0.857158	0.16831	3.63226	6.00008e-06	2.39047e-06	6.26228e-07	1.65899e-06	6.2755e-07	4.21025e-07	0.0205451	0.0529221	0.0567701	68.7831	2662.89	1033.77	2856.51	-21.2169	0.0000000E+000	0.0000000E+000	0.0000000E+000	21.2169	0.0000000E+000	0.0000000E+000	0.0000000E+000	-21.2169	0.0000000E+000	0.0000000E+000	0.0000000E+000	-68.7831	0.0000000E+000	0.0000000E+000	0.0000000E+000	68.7831	0.388214	21.2169	-7.63686e-07
999.682	13.6647	44.6176	46.6632	-72.9721	154.134	0.459378	-0.000121356	3.56822	3.26224	1	39	0.0140694	0.000301509	0	-7.22742e-05	0.381043	0.31098	8.82856	1.28173e-05	2.62355e-05	1.98641e-05	1.85148e-05	2.50773e-05	1.53761e-05	1.2082	0.154226	4.23548	2.96349e-06	1.90802e-06	1.85669e-07	7.88626e-07	2.73954e-07	2.5536e-07	0.00627554	0.0204907	0.0214302	72.9721	3262.24	999.102	3411.8	-17.0279	0.0000000E+000	0.0000000E+000	0.0000000E+000	17.0279	0.0000000E+000	0.0000000E+000	0.0000000E+000	-17.0279	0.0000000E+000	0.0000000E+000	0.0000000E+000	-72.9721	0.0000000E+000	0.0000000E+000	0.0000000E+000	72.9721	0.306263	17.0279	-1.91646e-07
316.316	36.2801	115.637	121.194	-72.5812	159.661	0.459413	-3.20852e-05	4.35115	3.96123	1	39	0.0129861	0.000107151	0	-7.2725e-05	0.529199	0.287382	9.72846	2.84676e-05	2.30191e-05	1.66409e-05	3.68069e-05	2.26601e-05	2.64164e-05	1.10598	0.414531	12.0547	8.85324e-07	5.44507e-07	2.99284e-07	3.20391e-07	1.42922e-07	1.92009e-07	0.00247004	0.00787283	0.00825121	72.5812	3961.23	1242.8	4151.61	-17.4188	0.0000000E+000	0.0000000E+000	0.0000000E+000	17.4188	0.0000000E+000	0.0000000E+000	0.0000000E+000	-17.4188	0.0000000E+000	0.0000000E+000	0.0000000E+000	-72.5812	0.0000000E+000	0.0000000E+000	0.0000000E+000	72.5812	0.313742	17.4188	-8.54826e-08
[...]
9.99682	1034.35	1338.41	1691.51	-52.3025	176.45	0.459408	-6.87604e-05	11.8952	7.44729	1	41	0.0128877	7.61904e-06	0	-7.3111e-05	1.00069	0.558368	20.0828	4.48315e-05	4.87606e-05	4.11071e-05	1.97902e-05	7.13402e-05	5.99057e-05	0.859499	0.237772	6.70074	5.38346e-08	2.66372e-08	8.72635e-09	1.39868e-08	1.36955e-08	9.63429e-09	0.000361507	0.000467778	0.000591188	52.3025	7447.29	5755.4	9412.05	-37.6975	0.0000000E+000	0.0000000E+000	0.0000000E+000	37.6975	0.0000000E+000	0.0000000E+000	0.0000000E+000	-37.6975	0.0000000E+000	0.0000000E+000	0.0000000E+000	-52.3025	0.0000000E+000	0.0000000E+000	0.0000000E+000	52.3025	0.772818	37.6975	4.25986e-08
3.16296	2516.76	1712.25	3043.99	-34.2289	184.892	0.459435	-6.1749e-05	29.3874	9.29838	1	41	0.0128846	4.23281e-06	0	-7.3303e-05	0.475444	0.223937	8.59996	2.06967e-05	9.8263e-06	3.8442e-05	2.47605e-05	2.00185e-05	1.81241e-05	0.830092	0.125006	5.36934	2.93558e-08	1.40795e-08	6.40005e-09	9.24434e-09	4.14672e-09	3.50349e-09	0.000271616	0.000184791	0.000328517	34.2289	9298.38	13667.3	16530.4	-55.7711	0.0000000E+000	0.0000000E+000	0.0000000E+000	55.7711	0.0000000E+000	0.0000000E+000	0.0000000E+000	-55.7711	0.0000000E+000	0.0000000E+000	0.0000000E+000	-34.2289	0.0000000E+000	0.0000000E+000	0.0000000E+000	34.2289	1.46986	55.7711	-1.23913e-07
1.00006	3819.62	1209.58	4006.57	-17.5718	208.314	0.459441	-6.86005e-05	131.57	11.9918	1	42	0.0128667	3.2114e-06	0	-7.35237e-05	0.253712	0.213632	4.76035	1.87598e-05	3.95573e-06	1.22256e-05	9.02793e-06	1.58963e-05	1.28212e-05	0.772521	0.0576371	1.28546	2.22871e-08	1.02656e-08	6.22273e-10	3.53349e-09	5.11542e-10	3.49956e-10	0.000237944	7.53514e-05	0.00024959	17.5718	11991.8	37867.7	39721.1	-72.4282	0.0000000E+000	0.0000000E+000	0.0000000E+000	72.4282	0.0000000E+000	0.0000000E+000	0.0000000E+000	-72.4282	0.0000000E+000	0.0000000E+000	0.0000000E+000	-17.5718	0.0000000E+000	0.0000000E+000	0.0000000E+000	17.5718	3.1578	72.4282	1.50348e-07
0.316193	4436.62	700.322	4491.56	-8.97013	274.111	0.459432	-6.70975e-05	718.738	17.4732	1	42	0.0128636	2.86394e-06	0	-7.51691e-05	0.178424	0.0996497	2.66193	9.29753e-06	7.81504e-06	6.77131e-06	1.08792e-05	7.7478e-06	6.63269e-06	0.788171	0.0375553	1.44397	2.07713e-08	8.44995e-09	2.59766e-10	2.52429e-09	1.32064e-10	2.64505e-10	0.000219917	3.47139e-05	0.00022264	8.97013	17473.2	110695	112065	-81.0299	0.0000000E+000	0.0000000E+000	0.0000000E+000	81.0299	0.0000000E+000	0.0000000E+000	0.0000000E+000	-81.0299	0.0000000E+000	0.0000000E+000	0.0000000E+000	-8.97013	0.0000000E+000	0.0000000E+000	0.0000000E+000	8.97013	6.33512	81.0299	-8.36747e-07
0.0999518	4780.98	359.166	4794.45	-4.29622	478.693	0.459433	-6.00101e-05	4433.37	24.8798	1	42	0.0128668	2.68368e-06	0	-7.80013e-05	0.113886	0.0557767	1.46618	2.77011e-06	8.8941e-06	6.95005e-06	5.88427e-06	2.91685e-06	3.8534e-06	0.777765	0.0465877	1.48958	1.93743e-08	7.4275e-09	3.29653e-10	2.18853e-09	2.35157e-10	1.94804e-10	0.000207988	1.56249e-05	0.000208574	4.29622	24879.8	331183	332117	-85.7038	0.0000000E+000	0.0000000E+000	0.0000000E+000	85.7038	0.0000000E+000	0.0000000E+000	0.0000000E+000	-85.7038	0.0000000E+000	0.0000000E+000	0.0000000E+000	-4.29622	0.0000000E+000	0.0000000E+000	0.0000000E+000	4.29622	13.3113	85.7038	-1.48023e-06