Folder: Thesis/Python/Data/RDE (part 21)

File: 240223-OCV-EIS-Fe2Fe3_5mM-HCl1M-2000RPM-Ag_AgCl_BLF8-GC-RDE-AllPreviousVariations_04_PEIS_C15.mpt
EC-Lab ASCII FILE
Nb header lines : 67

Potentio Electrochemical Impedance Spectroscopy

Run on channel : 15 (SN 19485)
User :
Electrode connection : standard
Potential control : Ewe
Ewe ctrl range : min = -1.00 V, max = 1.00 V
Ewe,I filtering : 50 kHz
Safety Limits :
	Do not start on E overload
Channel : Floating
Acquisition started on : 02/23/2024 12:36:41.987
Loaded Setting File :  C:\Data\mathias\RDE-RPM-variation\240222-CV-EIS-Fe2Fe3_5mM-HCl1M-0RPM-Ag_AgCl_BLF8-GC-RDE-DefaultSettings.mps
Saved on :
	File : 240223-OCV-EIS-Fe2Fe3_5mM-HCl1M-2000RPM-Ag_AgCl_BLF8-GC-RDE-AllPreviousVariations_04_PEIS_C15.mpr
	Directory : C:\Data\mathias\RDE-RPM-variation\
	Host : 192.168.0.1
Device : VMP-300 (SN 0826)
Address : USB
EC-Lab for windows v11.52 (software)
Internet server v11.52 (firmware)
Command interpretor v11.52 (firmware)
Electrode material :
Initial state :
Electrolyte :
Comments :
Cable : special
Reference electrode : SCE Saturated Calomel Electrode (0.241 V)
Electrode surface area : 0.001 cm²
Characteristic mass : 0.001 g
Equivalent Weight : 0.000 g/eq.
Density : 0.000 g/cm3
Volume (V) : 0.001 cm³
Record EIS quality indicators
Cycle Definition : Charge/Discharge alternance
Mode                Single sine
E (V)               0.0000
vs.                 Ref
tE (h:m:s)          0:01:0.0000
record              0
dI                  0.000
unit dI             mA
dt (s)              0.000
fi                  400.000
unit fi             kHz
ff                  100.000
unit ff             mHz
Nd                  10
Points              per decade
spacing             Logarithmic
Va (mV)             7.0
pw                  0.10
Na                  3
corr                0
E range min (V)     -1.000
E range max (V)     1.000
I Range             Auto
Bandwidth           8
nc cycles           2
goto Ns'            0
nr cycles           0
inc. cycle          1

freq/Hz	Re(Z)/Ohm	-Im(Z)/Ohm	|Z|/Ohm	Phase(Z)/deg	time/s	<Ewe>/V	<I>/mA	Cs/µF	Cp/µF	cycle number	I Range	|Ewe|/V	|I|/A	Ns	(Q-Qo)/mA.h	THD Ewe/%	NSD Ewe/%	NSR Ewe/%	|Ewe h2|/V	|Ewe h3|/V	|Ewe h4|/V	|Ewe h5|/V	|Ewe h6|/V	|Ewe h7|/V	THD I/%	NSD I/%	NSR I/%	|I h2|/A	|I h3|/A	|I h4|/A	|I h5|/A	|I h6|/A	|I h7|/A	Re(Y)/Ohm-1	Im(Y)/Ohm-1	|Y|/Ohm-1	Phase(Y)/deg	Re(C)/nF	Im(C)/nF	|C|/nF	Phase(C)/deg	Re(M)	Im(M)	|M|	Phase(M)/deg	Re(Permittivity)	Im(Permittivity)	|Permittivity|	Phase(Permittivity)/deg	Re(Resistivity)/Ohm.cm	Im(Resistivity)/Ohm.cm	|Resistivity|/Ohm.cm	Phase(Resistivity)/deg	Re(Conductivity)/mS/cm	Im(Conductivity)/mS/cm	|Conductivity|/mS/cm	Phase(Conductivity)/deg	Tan(Delta)	Loss Angle(Delta)/deg	dq/mA.h
399996	3.51634	1.61973	3.87145	-24.7322	478.376	-0.000171426	-0.525423	0.245653	0.042999	1	38	0.00651265	0.00168222	0	-0.0089131	-1	-1	-1	0	0	0	0	0	0	-1	-1	-1	0	0	0	0	0	0	0.234608	0.108067	0.258301	24.7322	42.999	93.3484	102.776	-65.2678	0.0000000E+000	0.0000000E+000	0.0000000E+000	65.2678	0.0000000E+000	0.0000000E+000	0.0000000E+000	-65.2678	0.0000000E+000	0.0000000E+000	0.0000000E+000	-24.7322	0.0000000E+000	0.0000000E+000	0.0000000E+000	24.7322	2.17094	65.2678	-0.0089131
20032.3	3.7955	2.71793	4.66829	-35.6062	493.285	-0.00014518	-0.523144	2.92315	0.99086	1	38	0.00726073	0.00155533	0	-0.0110625	0.918496	0.618235	18.099	4.50483e-05	2.04015e-05	2.05197e-05	2.26917e-05	1.592e-05	2.27948e-05	0.0941502	0.0672472	1.86724	7.89455e-07	4.31997e-07	5.78293e-07	6.56381e-07	3.58485e-07	3.41165e-07	0.174162	0.124716	0.214211	35.6062	990.86	1383.7	1701.89	-54.3938	0.0000000E+000	0.0000000E+000	0.0000000E+000	54.3938	0.0000000E+000	0.0000000E+000	0.0000000E+000	-54.3938	0.0000000E+000	0.0000000E+000	0.0000000E+000	-35.6062	0.0000000E+000	0.0000000E+000	0.0000000E+000	35.6062	1.39646	54.3938	-0.000163578
1002.75	14.9531	34.0163	37.1578	-66.2703	508.293	-0.000306478	-0.519216	4.66595	3.91033	1	39	0.00751134	0.000202147	0	-0.0132249	0.933274	0.345142	17.2004	1.93323e-05	3.1162e-05	1.63946e-05	3.54043e-05	2.97451e-05	2.23629e-05	0.629563	0.185554	6.56786	8.64521e-07	3.84601e-07	3.78193e-07	6.19142e-07	2.75243e-07	2.1479e-07	0.0108301	0.0246369	0.0269122	66.2703	3910.33	1718.93	4271.46	-23.7297	0.0000000E+000	0.0000000E+000	0.0000000E+000	23.7297	0.0000000E+000	0.0000000E+000	0.0000000E+000	-23.7297	0.0000000E+000	0.0000000E+000	0.0000000E+000	-66.2703	0.0000000E+000	0.0000000E+000	0.0000000E+000	66.2703	0.439588	23.7297	-0.0001908
50.2089	160.233	262.533	307.569	-58.6028	522.583	-0.000253445	-0.519933	12.0741	8.79711	1	39	0.00675485	2.19621e-05	0	-0.0152662	1.0536	0.484856	18.9982	1.88163e-05	2.24578e-05	2.73813e-05	2.21855e-05	3.24789e-05	3.77409e-05	2.69857	1.83884	59.8145	2.0153e-07	1.94399e-07	1.99289e-07	2.23003e-07	1.81656e-07	3.62345e-07	0.00169383	0.00277524	0.00325131	58.6028	8797.11	5369.19	10306.2	-31.3972	0.0000000E+000	0.0000000E+000	0.0000000E+000	31.3972	0.0000000E+000	0.0000000E+000	0.0000000E+000	-31.3972	0.0000000E+000	0.0000000E+000	0.0000000E+000	-58.6028	0.0000000E+000	0.0000000E+000	0.0000000E+000	58.6028	0.610335	31.3972	-0.000152476
2.51368	1428.1	1721.98	2237.12	-50.3298	541.329	-0.000281137	-0.518896	36.769	21.7852	1	39	0.00674321	3.01424e-06	0	-0.017946	0.359666	0.215363	7.36406	6.74217e-06	1.48082e-05	9.70787e-06	5.83647e-06	8.55415e-06	8.10387e-06	15.8022	42.398	172.995	2.82664e-07	2.243e-07	1.27528e-07	1.31155e-07	9.67842e-08	1.12252e-07	0.000285352	0.000344073	0.000447004	50.3298	21785.2	18067.3	28302.3	-39.6702	0.0000000E+000	0.0000000E+000	0.0000000E+000	39.6702	0.0000000E+000	0.0000000E+000	0.0000000E+000	-39.6702	0.0000000E+000	0.0000000E+000	0.0000000E+000	-50.3298	0.0000000E+000	0.0000000E+000	0.0000000E+000	50.3298	0.829337	39.6702	-0.000401602
0.125939	3519.39	188.994	3524.47	-3.07386	769.568	-0.000255724	-0.516935	6686.74	19.2274	1	39	0.006739	1.91206e-06	0	-0.0507257	0.137514	0.111909	1.64807	2.36508e-06	6.35722e-06	2.48414e-06	4.82715e-06	1.43797e-06	1.18328e-06	26.4031	16.1427	93.2812	9.26664e-08	1.96945e-07	2.71764e-07	2.10201e-07	1.98717e-07	1.60479e-07	0.000283323	1.52146e-05	0.000283731	3.07386	19227.5	358049	358565	-86.9261	0.0000000E+000	0.0000000E+000	0.0000000E+000	86.9261	0.0000000E+000	0.0000000E+000	0.0000000E+000	-86.9261	0.0000000E+000	0.0000000E+000	0.0000000E+000	-3.07386	0.0000000E+000	0.0000000E+000	0.0000000E+000	3.07386	18.6218	86.9261	-0.00700333
31751	3.6233	1.90388	4.09305	-27.7199	845.334	-0.00019428	-0.518616	2.63283	0.569649	2	38	0.00727513	0.00177743	0	-0.0616033	0.893017	0.569103	18.0602	3.18843e-05	2.26126e-05	1.30733e-05	3.27145e-05	2.04635e-05	1.91445e-05	0.0983803	0.0752838	1.65248	7.5405e-07	3.66543e-07	7.49877e-07	6.54175e-07	5.25172e-07	9.76311e-07	0.216277	0.113644	0.244317	27.7199	569.649	1084.11	1224.66	-62.2801	0.0000000E+000	0.0000000E+000	0.0000000E+000	62.2801	0.0000000E+000	0.0000000E+000	0.0000000E+000	-62.2801	0.0000000E+000	0.0000000E+000	0.0000000E+000	-27.7199	0.0000000E+000	0.0000000E+000	0.0000000E+000	27.7199	1.90311	62.2801	-0.000165132
[...]
2519.19	7.86983	16.7808	18.5345	-64.8744	1212.08	-0.000316488	-0.516443	3.76485	3.08609	3	38	0.00636595	0.000343465	0	-0.113987	0.942931	0.76047	20.6664	2.6705e-05	2.62371e-05	2.1148e-05	2.09933e-05	2.366e-05	1.98078e-05	0.611998	0.324038	8.35404	1.06621e-06	8.01129e-07	6.96299e-07	8.16598e-07	5.65095e-07	8.47888e-07	0.0229088	0.0488483	0.0539534	64.8744	3086.09	1447.31	3408.62	-25.1256	0.0000000E+000	0.0000000E+000	0.0000000E+000	25.1256	0.0000000E+000	0.0000000E+000	0.0000000E+000	-25.1256	0.0000000E+000	0.0000000E+000	0.0000000E+000	-64.8744	0.0000000E+000	0.0000000E+000	0.0000000E+000	64.8744	0.468979	25.1256	-0.000157514
126.171	85.0143	141.453	165.035	-58.9939	1226.94	-0.000251656	-0.514414	8.91759	6.55123	3	39	0.00673169	4.07895e-05	0	-0.116091	0.896053	0.493704	19.3357	1.68165e-05	2.00109e-05	2.61012e-05	2.77006e-05	2.32859e-05	1.92414e-05	1.62562	0.866184	32.5575	4.05531e-07	1.41942e-07	2.09366e-07	1.91098e-07	2.17056e-07	3.00879e-07	0.00312134	0.00519353	0.00605933	58.9939	6551.23	3937.33	7643.37	-31.0061	0.0000000E+000	0.0000000E+000	0.0000000E+000	31.0061	0.0000000E+000	0.0000000E+000	0.0000000E+000	-31.0061	0.0000000E+000	0.0000000E+000	0.0000000E+000	-58.9939	0.0000000E+000	0.0000000E+000	0.0000000E+000	58.9939	0.601006	31.0061	-0.00015621
6.31569	672.45	808.337	1051.47	-50.2432	1241.37	-0.000251013	-0.514043	31.175	18.4245	3	39	0.00673801	6.40816e-06	0	-0.118132	0.798497	0.249226	13.3588	1.50283e-05	1.83797e-05	1.86783e-05	2.64199e-05	2.1257e-05	1.85675e-05	7.91014	7.20357	146.592	2.2006e-07	1.23718e-07	2.04229e-07	2.76097e-07	1.91779e-07	8.38093e-08	0.000608223	0.000731131	0.000951045	50.2432	18424.5	15327.2	23966.3	-39.7568	0.0000000E+000	0.0000000E+000	0.0000000E+000	39.7568	0.0000000E+000	0.0000000E+000	0.0000000E+000	-39.7568	0.0000000E+000	0.0000000E+000	0.0000000E+000	-50.2432	0.0000000E+000	0.0000000E+000	0.0000000E+000	50.2432	0.831893	39.7568	-0.000195104
0.316193	2580.8	983.818	2761.96	-20.8672	1335.08	-0.000254388	-0.51345	511.627	64.9154	3	39	0.00674095	2.44064e-06	0	-0.131478	0.181208	0.084998	2.60206	1.69441e-06	7.45413e-06	4.94027e-06	3.4457e-06	3.45244e-06	4.74908e-06	27.5468	16.5426	89.3323	1.38842e-07	3.38248e-07	4.57716e-07	1.71285e-07	1.19843e-07	1.44442e-07	0.000338314	0.000128967	0.000362062	20.8672	64915.3	170289	182243	-69.1328	0.0000000E+000	0.0000000E+000	0.0000000E+000	69.1328	0.0000000E+000	0.0000000E+000	0.0000000E+000	-69.1328	0.0000000E+000	0.0000000E+000	0.0000000E+000	-20.8672	0.0000000E+000	0.0000000E+000	0.0000000E+000	20.8672	2.62325	69.1328	-0.00279664
0.0999518	2782.23	279.908	2796.27	-5.74495	1539.66	-0.000263102	-0.512398	5688.72	57.0015	3	39	0.00674309	2.41146e-06	0	-0.160607	0.130541	0.0799939	1.67577	2.092e-06	5.71106e-06	1.95897e-06	5.14053e-06	1.76799e-06	1.32495e-06	21.2977	8.30776	68.8353	2.15696e-07	2.77438e-07	1.43677e-07	2.06362e-07	8.68603e-08	1.31072e-07	0.000355823	3.57978e-05	0.000357619	5.74495	57001.5	566583	569443	-84.2551	0.0000000E+000	0.0000000E+000	0.0000000E+000	84.2551	0.0000000E+000	0.0000000E+000	0.0000000E+000	-84.2551	0.0000000E+000	0.0000000E+000	0.0000000E+000	-5.74495	0.0000000E+000	0.0000000E+000	0.0000000E+000	5.74495	9.93979	84.2551	-0.00873614

File: 240223-OCV-EIS-Fe2Fe3_5mM-HCl1M-2000RPM-Ag_AgCl_BLF8-GC-RDE-AllPreviousVariations_05_OCV_C15.mpt
EC-Lab ASCII FILE
Nb header lines : 47

Open Circuit Voltage

Run on channel : 15 (SN 19485)
User :
Electrode connection : standard
Potential control : Ewe
Ewe ctrl range : min = -1.00 V, max = 1.00 V
Ewe,I filtering : 50 kHz
Safety Limits :
	Do not start on E overload
Channel : Floating
Acquisition started on : 02/23/2024 12:36:41.987
Loaded Setting File :  C:\Data\mathias\RDE-RPM-variation\240222-CV-EIS-Fe2Fe3_5mM-HCl1M-0RPM-Ag_AgCl_BLF8-GC-RDE-DefaultSettings.mps
Saved on :
	File : 240223-OCV-EIS-Fe2Fe3_5mM-HCl1M-2000RPM-Ag_AgCl_BLF8-GC-RDE-AllPreviousVariations_05_OCV_C15.mpr
	Directory : C:\Data\mathias\RDE-RPM-variation\
	Host : 192.168.0.1
Device : VMP-300 (SN 0826)
Address : USB
EC-Lab for windows v11.52 (software)
Internet server v11.52 (firmware)
Command interpretor v11.52 (firmware)
Electrode material :
Initial state :
Electrolyte :
Comments :
Cable : special
Reference electrode : SCE Saturated Calomel Electrode (0.241 V)
Electrode surface area : 0.001 cm²
Characteristic mass : 0.001 g
Equivalent Weight : 0.000 g/eq.
Density : 0.000 g/cm3
Volume (V) : 0.001 cm³
Record EIS quality indicators
Cycle Definition : Charge/Discharge alternance
tR (h:m:s)          0:01:0.0000
dER/dt (mV/h)       1.0
record              <Ewe>
dER (mV)            0.00
dtR (s)             0.5000
E range min (V)     -1.000
E range max (V)     1.000

mode	error	time/s	<Ewe/V>
3	0	1540.16	0.415392
3	0	1540.66	0.447002
3	0	1541.16	0.452815
3	0	1541.66	0.45504
3	0	1542.16	0.456231
3	0	1542.66	0.456976
3	0	1543.16	0.457478
3	0	1543.66	0.457836
3	0	1544.16	0.458098
3	0	1544.66	0.458304
3	0	1545.16	0.458469
3	0	1545.66	0.458603
3	0	1546.16	0.458714
3	0	1546.66	0.458805
3	0	1547.16	0.458887
3	0	1547.66	0.458954
3	0	1548.16	0.459016
3	0	1548.66	0.459068
3	0	1549.16	0.459115
3	0	1549.66	0.459157
3	0	1550.16	0.459193
3	0	1550.66	0.459227
3	0	1551.16	0.459257
3	0	1551.66	0.459281
3	0	1552.16	0.459304
3	0	1552.66	0.459323
3	0	1553.16	0.459339
3	0	1553.66	0.459359
3	0	1554.16	0.459379
3	0	1554.66	0.459396
3	0	1555.16	0.459413
3	0	1555.66	0.459427
3	0	1556.16	0.459439
3	0	1556.66	0.459451
3	0	1557.16	0.459461
3	0	1557.66	0.459472
3	0	1558.16	0.459483
3	0	1558.66	0.459492
3	0	1559.16	0.459502
3	0	1559.66	0.459507
3	0	1560.16	0.459513
3	0	1560.66	0.459522
3	0	1561.16	0.459532
3	0	1561.66	0.45954
3	0	1562.16	0.459546
3	0	1562.66	0.459555
3	0	1563.16	0.459562
3	0	1563.66	0.45957
3	0	1564.16	0.459573
3	0	1564.66	0.45958
3	0	1565.16	0.459586
3	0	1565.66	0.459589
3	0	1566.16	0.459594
3	0	1566.66	0.459596
3	0	1567.16	0.459601
3	0	1567.66	0.459604
3	0	1568.16	0.459609
3	0	1568.66	0.459613
3	0	1569.16	0.459616
3	0	1569.66	0.459618
3	0	1570.16	0.459622
3	0	1570.66	0.459628
3	0	1571.16	0.459628
3	0	1571.66	0.459631
3	0	1572.16	0.459634
3	0	1572.66	0.459636
3	0	1573.16	0.459639
3	0	1573.66	0.459638
3	0	1574.16	0.459642
3	0	1574.66	0.459642
3	0	1575.16	0.459644
3	0	1575.66	0.459647
3	0	1576.16	0.459652
3	0	1576.66	0.459656
3	0	1577.16	0.459656
3	0	1577.66	0.459659
3	0	1578.16	0.459661
3	0	1578.66	0.459664
3	0	1579.16	0.459663
3	0	1579.66	0.459665
3	0	1580.16	0.459666
3	0	1580.66	0.459665
3	0	1581.16	0.459668
3	0	1581.66	0.459673
3	0	1582.16	0.459675
3	0	1582.66	0.459678
3	0	1583.16	0.459676
3	0	1583.66	0.459677
3	0	1584.16	0.459678
3	0	1584.66	0.459681
3	0	1585.16	0.459681
3	0	1585.66	0.459685
3	0	1586.16	0.459688
3	0	1586.66	0.45969
3	0	1587.16	0.459696
3	0	1587.66	0.459696
3	0	1588.16	0.459699
3	0	1588.66	0.459701
3	0	1589.16	0.459702
3	0	1589.66	0.459704
3	0	1590.16	0.459706
3	0	1590.66	0.459706
3	0	1591.16	0.459711
3	0	1591.66	0.459711
3	0	1592.16	0.45971
3	0	1592.66	0.459712
3	0	1593.16	0.459711
3	0	1593.66	0.459711
3	0	1594.16	0.459714
3	0	1594.66	0.459716
3	0	1595.16	0.459716
3	0	1595.66	0.459718
3	0	1596.16	0.459717
3	0	1596.66	0.459719
3	0	1597.16	0.459723
3	0	1597.66	0.459726
3	0	1598.16	0.459728
3	0	1598.66	0.459731
3	0	1599.16	0.459733
3	0	1599.66	0.459731
3	0	1599.82	0.459731

File: 240223-OCV-EIS-Fe2Fe3_5mM-HCl1M-2000RPM-Ag_AgCl_BLF8-GC-RDE-AllPreviousVariations_06_PEIS_C15.mpt
EC-Lab ASCII FILE
Nb header lines : 67

Potentio Electrochemical Impedance Spectroscopy

Run on channel : 15 (SN 19485)
User :
Electrode connection : standard
Potential control : Ewe
Ewe ctrl range : min = -1.00 V, max = 1.00 V
Ewe,I filtering : 50 kHz
Safety Limits :
	Do not start on E overload
Channel : Floating
Acquisition started on : 02/23/2024 12:36:41.987
Loaded Setting File :  C:\Data\mathias\RDE-RPM-variation\240222-CV-EIS-Fe2Fe3_5mM-HCl1M-0RPM-Ag_AgCl_BLF8-GC-RDE-DefaultSettings.mps
Saved on :
	File : 240223-OCV-EIS-Fe2Fe3_5mM-HCl1M-2000RPM-Ag_AgCl_BLF8-GC-RDE-AllPreviousVariations_06_PEIS_C15.mpr
	Directory : C:\Data\mathias\RDE-RPM-variation\
	Host : 192.168.0.1
Device : VMP-300 (SN 0826)
Address : USB
EC-Lab for windows v11.52 (software)
Internet server v11.52 (firmware)
Command interpretor v11.52 (firmware)
Electrode material :
Initial state :
Electrolyte :
Comments :
Cable : special
Reference electrode : SCE Saturated Calomel Electrode (0.241 V)
Electrode surface area : 0.001 cm²
Characteristic mass : 0.001 g
Equivalent Weight : 0.000 g/eq.
Density : 0.000 g/cm3
Volume (V) : 0.001 cm³
Record EIS quality indicators
Cycle Definition : Charge/Discharge alternance
Mode                Single sine
E (V)               0.0000
vs.                 Ref
tE (h:m:s)          0:01:0.0000
record              0
dI                  0.000
unit dI             mA
dt (s)              0.000
fi                  400.000
unit fi             kHz
ff                  100.000
unit ff             mHz
Nd                  10
Points              per decade
spacing             Logarithmic
Va (mV)             5.0
pw                  0.10
Na                  3
corr                0
E range min (V)     -1.000
E range max (V)     1.000
I Range             Auto
Bandwidth           8
nc cycles           2
goto Ns'            0
nr cycles           0
inc. cycle          1

freq/Hz	Re(Z)/Ohm	-Im(Z)/Ohm	|Z|/Ohm	Phase(Z)/deg	time/s	<Ewe>/V	<I>/mA	Cs/µF	Cp/µF	cycle number	I Range	|Ewe|/V	|I|/A	Ns	(Q-Qo)/mA.h	THD Ewe/%	NSD Ewe/%	NSR Ewe/%	|Ewe h2|/V	|Ewe h3|/V	|Ewe h4|/V	|Ewe h5|/V	|Ewe h6|/V	|Ewe h7|/V	THD I/%	NSD I/%	NSR I/%	|I h2|/A	|I h3|/A	|I h4|/A	|I h5|/A	|I h6|/A	|I h7|/A	Re(Y)/Ohm-1	Im(Y)/Ohm-1	|Y|/Ohm-1	Phase(Y)/deg	Re(C)/nF	Im(C)/nF	|C|/nF	Phase(C)/deg	Re(M)	Im(M)	|M|	Phase(M)/deg	Re(Permittivity)	Im(Permittivity)	|Permittivity|	Phase(Permittivity)/deg	Re(Resistivity)/Ohm.cm	Im(Resistivity)/Ohm.cm	|Resistivity|/Ohm.cm	Phase(Resistivity)/deg	Re(Conductivity)/mS/cm	Im(Conductivity)/mS/cm	|Conductivity|/mS/cm	Phase(Conductivity)/deg	Tan(Delta)	Loss Angle(Delta)/deg	dq/mA.h
399996	3.50458	1.60744	3.85564	-24.6394	1661.52	-0.000171482	-0.519568	0.247531	0.0430235	1	38	0.00462193	0.00119874	0	-0.00881205	-1	-1	-1	0	0	0	0	0	0	-1	-1	-1	0	0	0	0	0	0	0.235745	0.108129	0.25936	24.6394	43.0235	93.801	103.197	-65.3606	0.0000000E+000	0.0000000E+000	0.0000000E+000	65.3606	0.0000000E+000	0.0000000E+000	0.0000000E+000	-65.3606	0.0000000E+000	0.0000000E+000	0.0000000E+000	-24.6394	0.0000000E+000	0.0000000E+000	0.0000000E+000	24.6394	2.18023	65.3606	-0.00881205
20032.3	3.7806	2.71181	4.65262	-35.6517	1676.43	-0.000170979	-0.518275	2.92975	0.9953	1	38	0.00520465	0.00111865	0	-0.010941	1.08346	0.782652	25.9842	2.07308e-05	1.9256e-05	1.72913e-05	2.56963e-05	1.10596e-05	2.97227e-05	0.150367	0.072209	2.64203	9.67225e-07	6.62048e-07	5.98885e-07	5.84993e-07	4.81317e-07	4.67705e-07	0.174649	0.125275	0.214933	35.6517	995.3	1387.57	1707.62	-54.3483	0.0000000E+000	0.0000000E+000	0.0000000E+000	54.3483	0.0000000E+000	0.0000000E+000	0.0000000E+000	-54.3483	0.0000000E+000	0.0000000E+000	0.0000000E+000	-35.6517	0.0000000E+000	0.0000000E+000	0.0000000E+000	35.6517	1.39413	54.3483	-0.000162876
1002.75	15.1009	33.0887	36.3716	-65.4691	1691.44	-0.000276485	-0.513192	4.79676	3.96991	1	39	0.00528319	0.000145256	0	-0.0130721	1.26474	0.829793	24.1508	1.59784e-05	3.25935e-05	1.52837e-05	2.90288e-05	2.92744e-05	2.45236e-05	0.766217	0.241214	9.03409	5.54517e-07	5.8549e-07	2.57239e-07	4.84311e-07	2.80158e-07	1.76622e-07	0.011415	0.0250123	0.0274939	65.4691	3969.91	1811.77	4363.79	-24.5309	0.0000000E+000	0.0000000E+000	0.0000000E+000	24.5309	0.0000000E+000	0.0000000E+000	0.0000000E+000	-24.5309	0.0000000E+000	0.0000000E+000	0.0000000E+000	-65.4691	0.0000000E+000	0.0000000E+000	0.0000000E+000	65.4691	0.456377	24.5309	-0.00018866
50.2089	162.599	234.714	285.533	-55.2876	1705.73	-0.000231692	-0.51327	13.5052	9.1257	1	39	0.00474501	1.66181e-05	0	-0.0150902	1.59559	0.808712	26.7492	3.03927e-05	3.00539e-05	2.31562e-05	2.55695e-05	3.36791e-05	2.76651e-05	3.4415	2.4228	79.1717	2.18673e-07	1.87945e-07	1.66318e-07	1.42721e-07	3.23469e-07	2.11119e-07	0.00199437	0.0028789	0.00350222	55.2876	9125.7	6321.86	11101.5	-34.7124	0.0000000E+000	0.0000000E+000	0.0000000E+000	34.7124	0.0000000E+000	0.0000000E+000	0.0000000E+000	-34.7124	0.0000000E+000	0.0000000E+000	0.0000000E+000	-55.2876	0.0000000E+000	0.0000000E+000	0.0000000E+000	55.2876	0.692753	34.7124	-0.000150837
2.51368	1097.5	1192.31	1620.52	-47.371	1724.48	-0.000248748	-0.51333	53.1035	28.7467	1	39	0.0047501	2.93122e-06	0	-0.0177425	0.489852	0.341744	10.5091	6.95458e-06	7.75569e-06	7.78312e-06	1.12097e-05	9.17089e-06	9.20793e-06	21.8273	30.1429	177.306	5.35274e-07	2.05164e-07	9.10803e-08	1.16926e-07	1.10454e-07	1.52819e-07	0.00041792	0.000454023	0.000617085	47.371	28746.7	26460.8	39071.1	-42.629	0.0000000E+000	0.0000000E+000	0.0000000E+000	42.629	0.0000000E+000	0.0000000E+000	0.0000000E+000	-42.629	0.0000000E+000	0.0000000E+000	0.0000000E+000	-47.371	0.0000000E+000	0.0000000E+000	0.0000000E+000	47.371	0.920481	42.629	-0.000397571
0.125939	2610.11	312.745	2628.78	-6.83262	1952.72	-0.00026015	-0.511705	4040.84	57.1927	1	39	0.0047462	1.80547e-06	0	-0.0501938	0.139258	0.116902	2.30158	2.40714e-06	3.20441e-06	2.43575e-06	2.60002e-06	2.27289e-06	2.11557e-06	30.4773	20.2038	94.3582	1.94403e-07	2.89793e-07	2.54655e-07	1.32111e-07	7.96945e-08	2.34154e-07	0.000377702	4.52564e-05	0.000380404	6.83262	57192.7	477321	480735	-83.1674	0.0000000E+000	0.0000000E+000	0.0000000E+000	83.1674	0.0000000E+000	0.0000000E+000	0.0000000E+000	-83.1674	0.0000000E+000	0.0000000E+000	0.0000000E+000	-6.83262	0.0000000E+000	0.0000000E+000	0.0000000E+000	6.83262	8.34584	83.1674	-0.00693242
31751	3.64645	1.9012	4.11232	-27.5368	2028.48	-0.00018522	-0.516207	2.63654	0.563529	2	38	0.00523515	0.00127304	0	-0.0609703	1.3462	0.742857	25.7366	3.02976e-05	1.97879e-05	2.49284e-05	2.15363e-05	3.56431e-05	3.18656e-05	0.147728	0.0788082	2.29445	8.58237e-07	9.4867e-07	6.53244e-07	7.35122e-07	6.69754e-07	3.73082e-07	0.215624	0.112423	0.243172	27.5368	563.529	1080.83	1218.92	-62.4632	0.0000000E+000	0.0000000E+000	0.0000000E+000	62.4632	0.0000000E+000	0.0000000E+000	0.0000000E+000	-62.4632	0.0000000E+000	0.0000000E+000	0.0000000E+000	-27.5368	0.0000000E+000	0.0000000E+000	0.0000000E+000	27.5368	1.91797	62.4632	-0.000163722
[...]
2519.19	7.86244	16.3625	18.1535	-64.335	2395.22	-0.000269868	-0.511729	3.86109	3.13681	3	38	0.00457682	0.000252118	0	-0.112877	1.80078	1.05864	29.6016	3.50094e-05	3.7398e-05	1.91223e-05	3.0456e-05	3.82646e-05	2.7216e-05	0.747481	0.271622	11.7541	8.28097e-07	5.00765e-07	5.78035e-07	8.416e-07	7.98074e-07	7.81835e-07	0.0238582	0.0496511	0.0550858	64.335	3136.81	1507.29	3480.16	-25.665	0.0000000E+000	0.0000000E+000	0.0000000E+000	25.665	0.0000000E+000	0.0000000E+000	0.0000000E+000	-25.665	0.0000000E+000	0.0000000E+000	0.0000000E+000	-64.335	0.0000000E+000	0.0000000E+000	0.0000000E+000	64.335	0.480516	25.665	-0.000156425
126.171	85.436	134.09	158.995	-57.4966	2410.08	-0.00025557	-0.51032	9.40727	6.69097	3	39	0.00490758	3.08662e-05	0	-0.114963	1.35445	0.847528	26.5949	2.94051e-05	2.04438e-05	4.18449e-05	1.91905e-05	1.5527e-05	2.14751e-05	2.73694	1.13377	43.7252	3.70089e-07	3.27863e-07	4.66311e-07	2.5795e-07	2.62501e-07	2.6167e-07	0.00337966	0.00530431	0.0062895	57.4966	6690.97	4263.18	7933.71	-32.5034	0.0000000E+000	0.0000000E+000	0.0000000E+000	32.5034	0.0000000E+000	0.0000000E+000	0.0000000E+000	-32.5034	0.0000000E+000	0.0000000E+000	0.0000000E+000	-57.4966	0.0000000E+000	0.0000000E+000	0.0000000E+000	57.4966	0.637154	32.5034	-0.00015476
6.31569	611.208	688.588	920.722	-48.4069	2424.51	-0.000239921	-0.50941	36.5965	20.4693	3	39	0.00489136	5.31253e-06	0	-0.116986	0.945227	0.542527	18.5806	1.66258e-05	1.9215e-05	1.91875e-05	1.83809e-05	2.25779e-05	1.0447e-05	9.88533	14.4155	178.914	2.60873e-07	1.71038e-07	2.86977e-07	1.52134e-07	2.08231e-07	1.16019e-07	0.000720995	0.000812274	0.0010861	48.4069	20469.2	18169	27369.8	-41.5931	0.0000000E+000	0.0000000E+000	0.0000000E+000	41.5931	0.0000000E+000	0.0000000E+000	0.0000000E+000	-41.5931	0.0000000E+000	0.0000000E+000	0.0000000E+000	-48.4069	0.0000000E+000	0.0000000E+000	0.0000000E+000	48.4069	0.887625	41.5931	-0.000193501
0.316193	2458.17	992.969	2651.15	-21.996	2518.21	-0.000248443	-0.509249	506.912	71.1106	3	39	0.00490088	1.84858e-06	0	-0.130213	0.203223	0.146773	3.53986	2.17845e-06	3.19309e-06	3.00117e-06	4.69191e-06	5.82071e-06	2.91495e-06	31.5428	23.1528	109.083	2.19821e-07	3.09423e-07	1.65122e-07	1.78775e-07	2.27627e-07	2.36444e-07	0.000349738	0.000141275	0.000377194	21.996	71110.6	176040	189860	-68.004	0.0000000E+000	0.0000000E+000	0.0000000E+000	68.004	0.0000000E+000	0.0000000E+000	0.0000000E+000	-68.004	0.0000000E+000	0.0000000E+000	0.0000000E+000	-21.996	0.0000000E+000	0.0000000E+000	0.0000000E+000	21.996	2.47558	68.004	-0.00277328
0.0999518	2454.37	41.4669	2454.72	-0.967926	2722.8	-0.000248004	-0.508797	38399.8	10.9579	3	39	0.00490243	1.99714e-06	0	-0.159109	0.114379	0.147658	2.1724	1.56552e-06	3.55555e-06	1.40968e-06	2.81822e-06	1.99442e-06	1.20651e-06	23.6799	13.0166	83.8081	2.28889e-07	1.26193e-07	2.81287e-07	1.58849e-07	1.25289e-07	1.32518e-07	0.00040732	6.88171e-06	0.000407378	0.967926	10957.9	648583	648675	-89.0321	0.0000000E+000	0.0000000E+000	0.0000000E+000	89.0321	0.0000000E+000	0.0000000E+000	0.0000000E+000	-89.0321	0.0000000E+000	0.0000000E+000	0.0000000E+000	-0.967926	0.0000000E+000	0.0000000E+000	0.0000000E+000	0.967926	59.1888	89.0321	-0.00866989