Folder: Thesis/Python/Data/RDE (part 12)

File: 240223-OCV-EIS-Fe2Fe3_5mM-HCl1M-225RPM-Ag_AgCl_BLF8-GC-RDE-1minRestVSEoc-3ppf-14p1mVAmplitude_03_OCV_C15.mpt
EC-Lab ASCII FILE
Nb header lines : 47

Open Circuit Voltage

Run on channel : 15 (SN 19485)
User :
Electrode connection : standard
Potential control : Ewe
Ewe ctrl range : min = -1.00 V, max = 1.00 V
Ewe,I filtering : 50 kHz
Safety Limits :
	Do not start on E overload
Channel : Floating
Acquisition started on : 02/23/2024 15:54:32.363
Loaded Setting File :  NONE
Saved on :
	File : 240223-OCV-EIS-Fe2Fe3_5mM-HCl1M-225RPM-Ag_AgCl_BLF8-GC-RDE-1minRestVSEoc-3ppf-14p1mVAmplitude_03_OCV_C15.mpr
	Directory : C:\Data\mathias\RDE-RPM-variation\
	Host : 192.168.0.1
Device : VMP-300 (SN 0826)
Address : USB
EC-Lab for windows v11.52 (software)
Internet server v11.52 (firmware)
Command interpretor v11.52 (firmware)
Electrode material :
Initial state :
Electrolyte :
Comments :
Cable : special
Reference electrode : SCE Saturated Calomel Electrode (0.241 V)
Electrode surface area : 0.001 cm²
Characteristic mass : 0.001 g
Equivalent Weight : 0.000 g/eq.
Density : 0.000 g/cm3
Volume (V) : 0.001 cm³
Record EIS quality indicators
Cycle Definition : Charge/Discharge alternance
tR (h:m:s)          0:01:0.0000
dER/dt (mV/h)       1.0
record              <Ewe>
dER (mV)            0.00
dtR (s)             0.5000
E range min (V)     -1.000
E range max (V)     1.000

mode	error	time/s	<Ewe/V>
3	0	479.193	0.458659
3	0	479.693	0.459389
3	0	480.193	0.45954
3	0	480.693	0.459594
3	0	481.193	0.45962
3	0	481.693	0.45963
3	0	482.193	0.459635
3	0	482.693	0.459638
3	0	483.193	0.459641
3	0	483.693	0.459643
3	0	484.193	0.459645
3	0	484.693	0.459647
3	0	485.193	0.459648
3	0	485.693	0.459649
3	0	486.193	0.459645
3	0	486.693	0.459644
3	0	487.193	0.459641
3	0	487.693	0.459641
3	0	488.193	0.459641
3	0	488.693	0.459644
3	0	489.193	0.459647
3	0	489.693	0.459642
3	0	490.193	0.459644
3	0	490.693	0.45964
3	0	491.193	0.45964
3	0	491.693	0.459643
3	0	492.193	0.459642
3	0	492.693	0.459642
3	0	493.193	0.459644
3	0	493.693	0.459642
3	0	494.193	0.459646
3	0	494.693	0.459648
3	0	495.193	0.459648
3	0	495.693	0.459648
3	0	496.193	0.459648
3	0	496.693	0.459649
3	0	497.193	0.45965
3	0	497.693	0.459647
3	0	498.193	0.459646
3	0	498.693	0.459647
3	0	499.193	0.459645
3	0	499.693	0.45964
3	0	500.193	0.459638
3	0	500.693	0.459638
3	0	501.193	0.459637
3	0	501.693	0.459635
3	0	502.193	0.459634
3	0	502.693	0.459632
3	0	503.193	0.459637
3	0	503.693	0.459636
3	0	504.193	0.459632
3	0	504.693	0.459632
3	0	505.193	0.459632
3	0	505.693	0.459631
3	0	506.193	0.459634
3	0	506.693	0.459634
3	0	507.193	0.459636
3	0	507.693	0.459628
3	0	508.193	0.459629
3	0	508.693	0.45963
3	0	509.193	0.459634
3	0	509.693	0.459635
3	0	510.193	0.459636
3	0	510.693	0.459635
3	0	511.193	0.459633
3	0	511.693	0.459632
3	0	512.193	0.45963
3	0	512.693	0.45963
3	0	513.193	0.459628
3	0	513.693	0.459633
3	0	514.193	0.459629
3	0	514.693	0.459629
3	0	515.193	0.459631
3	0	515.693	0.45963
3	0	516.193	0.459627
3	0	516.693	0.459627
3	0	517.193	0.459629
3	0	517.693	0.45963
3	0	518.193	0.459627
3	0	518.693	0.459623
3	0	519.193	0.459628
3	0	519.693	0.45963
3	0	520.193	0.45963
3	0	520.693	0.459628
3	0	521.193	0.459627
3	0	521.693	0.459628
3	0	522.193	0.459634
3	0	522.693	0.459632
3	0	523.193	0.459627
3	0	523.693	0.459628
3	0	524.193	0.459625
3	0	524.693	0.459624
3	0	525.193	0.45962
3	0	525.693	0.459614
3	0	526.193	0.459612
3	0	526.693	0.459611
3	0	527.193	0.459606
3	0	527.693	0.459609
3	0	528.193	0.45961
3	0	528.693	0.45961
3	0	529.193	0.45961
3	0	529.693	0.45961
3	0	530.193	0.459608
3	0	530.693	0.45961
3	0	531.193	0.459611
3	0	531.693	0.459605
3	0	532.193	0.459607
3	0	532.693	0.459607
3	0	533.193	0.459607
3	0	533.693	0.459605
3	0	534.193	0.459606
3	0	534.693	0.459607
3	0	535.193	0.459602
3	0	535.693	0.459601
3	0	536.193	0.4596
3	0	536.693	0.4596
3	0	537.193	0.459598
3	0	537.693	0.459595
3	0	538.193	0.4596
3	0	538.693	0.459599
3	0	538.852	0.4596

File: 240223-OCV-EIS-Fe2Fe3_5mM-HCl1M-225RPM-Ag_AgCl_BLF8-GC-RDE-1minRestVSEoc-3ppf-14p1mVAmplitude_04_PEIS_C15.mpt
EC-Lab ASCII FILE
Nb header lines : 67

Potentio Electrochemical Impedance Spectroscopy

Run on channel : 15 (SN 19485)
User :
Electrode connection : standard
Potential control : Ewe
Ewe ctrl range : min = -1.00 V, max = 1.00 V
Ewe,I filtering : 50 kHz
Safety Limits :
	Do not start on E overload
Channel : Floating
Acquisition started on : 02/23/2024 15:54:32.363
Loaded Setting File :  NONE
Saved on :
	File : 240223-OCV-EIS-Fe2Fe3_5mM-HCl1M-225RPM-Ag_AgCl_BLF8-GC-RDE-1minRestVSEoc-3ppf-14p1mVAmplitude_04_PEIS_C15.mpr
	Directory : C:\Data\mathias\RDE-RPM-variation\
	Host : 192.168.0.1
Device : VMP-300 (SN 0826)
Address : USB
EC-Lab for windows v11.52 (software)
Internet server v11.52 (firmware)
Command interpretor v11.52 (firmware)
Electrode material :
Initial state :
Electrolyte :
Comments :
Cable : special
Reference electrode : SCE Saturated Calomel Electrode (0.241 V)
Electrode surface area : 0.001 cm²
Characteristic mass : 0.001 g
Equivalent Weight : 0.000 g/eq.
Density : 0.000 g/cm3
Volume (V) : 0.001 cm³
Record EIS quality indicators
Cycle Definition : Charge/Discharge alternance
Mode                Single sine
E (V)               0.0000
vs.                 Eoc
tE (h:m:s)          0:01:0.0000
record              0
dI                  0.000
unit dI             mA
dt (s)              0.000
fi                  1.000
unit fi             MHz
ff                  100.000
unit ff             mHz
Nd                  10
Points              per decade
spacing             Logarithmic
Va (mV)             14.1
pw                  0.10
Na                  3
corr                0
E range min (V)     -1.000
E range max (V)     1.000
I Range             Auto
Bandwidth           8
nc cycles           0
goto Ns'            0
nr cycles           0
inc. cycle          1

freq/Hz	Re(Z)/Ohm	-Im(Z)/Ohm	|Z|/Ohm	Phase(Z)/deg	time/s	<Ewe>/V	<I>/mA	Cs/µF	Cp/µF	cycle number	I Range	|Ewe|/V	|I|/A	Ns	(Q-Qo)/mA.h	THD Ewe/%	NSD Ewe/%	NSR Ewe/%	|Ewe h2|/V	|Ewe h3|/V	|Ewe h4|/V	|Ewe h5|/V	|Ewe h6|/V	|Ewe h7|/V	THD I/%	NSD I/%	NSR I/%	|I h2|/A	|I h3|/A	|I h4|/A	|I h5|/A	|I h6|/A	|I h7|/A	Re(Y)/Ohm-1	Im(Y)/Ohm-1	|Y|/Ohm-1	Phase(Y)/deg	Re(C)/nF	Im(C)/nF	|C|/nF	Phase(C)/deg	Re(M)	Im(M)	|M|	Phase(M)/deg	Re(Permittivity)	Im(Permittivity)	|Permittivity|	Phase(Permittivity)/deg	Re(Resistivity)/Ohm.cm	Im(Resistivity)/Ohm.cm	|Resistivity|/Ohm.cm	Phase(Resistivity)/deg	Re(Conductivity)/mS/cm	Im(Conductivity)/mS/cm	|Conductivity|/mS/cm	Phase(Conductivity)/deg	Tan(Delta)	Loss Angle(Delta)/deg	dq/mA.h
1.00002e+06	3.51877	4.0845	5.39118	-49.2553	602.04	0.459423	-0.0109373	0.0389649	0.0223657	1	38	0.0111392	0.00206618	0	-7.24994e-06	-1	-1	-1	0	0	0	0	0	0	-1	-1	-1	0	0	0	0	0	0	0.121066	0.140531	0.185488	49.2553	22.3657	19.2679	29.5208	-40.7447	0.0000000E+000	0.0000000E+000	0.0000000E+000	40.7447	0.0000000E+000	0.0000000E+000	0.0000000E+000	-40.7447	0.0000000E+000	0.0000000E+000	0.0000000E+000	-49.2553	0.0000000E+000	0.0000000E+000	0.0000000E+000	49.2553	0.861493	40.7447	-7.24994e-06
316230	3.43616	1.35843	3.69493	-21.5705	607.641	0.459403	-0.00124024	0.370494	0.0500774	1	38	0.014548	0.00393728	0	-5.72615e-06	-1	-1	-1	0	0	0	0	0	0	-1	-1	-1	0	0	0	0	0	0	0.251687	0.0995003	0.270641	21.5705	50.0774	126.671	136.211	-68.4295	0.0000000E+000	0.0000000E+000	0.0000000E+000	68.4295	0.0000000E+000	0.0000000E+000	0.0000000E+000	-68.4295	0.0000000E+000	0.0000000E+000	0.0000000E+000	-21.5705	0.0000000E+000	0.0000000E+000	0.0000000E+000	21.5705	2.52951	68.4295	2.58253e-06
100004	3.41345	1.06333	3.57523	-17.3024	613.376	0.459424	-0.00126444	1.49671	0.132392	1	38	0.0145088	0.00405815	0	-3.85653e-05	0.487685	0.221898	9.00409	3.90014e-05	2.48369e-05	2.4427e-05	2.06659e-05	2.83668e-05	1.9199e-05	0.0681534	0.0465132	0.70225	1.85498e-06	1.2948e-06	8.43519e-07	4.94862e-07	5.00468e-07	6.87736e-07	0.267045	0.0831876	0.279702	17.3024	132.392	425	445.143	-72.6976	0.0000000E+000	0.0000000E+000	0.0000000E+000	72.6976	0.0000000E+000	0.0000000E+000	0.0000000E+000	-72.6976	0.0000000E+000	0.0000000E+000	0.0000000E+000	-17.3024	0.0000000E+000	0.0000000E+000	0.0000000E+000	17.3024	3.21016	72.6976	-5.6674e-06
31621.1	3.60716	2.17317	4.21121	-31.0673	619.112	0.459425	-0.00230341	2.31605	0.616769	1	38	0.0147202	0.00349547	0	-3.95799e-05	0.47762	0.236461	8.92451	2.15632e-05	3.40473e-05	2.52492e-05	1.98174e-05	3.23917e-05	2.24723e-05	0.0609892	0.0998693	0.804099	6.52991e-07	1.35552e-06	9.38803e-07	6.89028e-07	4.5013e-07	4.7631e-07	0.2034	0.122541	0.237461	31.0673	616.769	1023.75	1195.19	-58.9327	0.0000000E+000	0.0000000E+000	0.0000000E+000	58.9327	0.0000000E+000	0.0000000E+000	0.0000000E+000	-58.9327	0.0000000E+000	0.0000000E+000	0.0000000E+000	-31.0673	0.0000000E+000	0.0000000E+000	0.0000000E+000	31.0673	1.65986	58.9327	-4.54836e-06
10002.2	4.22036	5.91288	7.26454	-54.4823	624.846	0.459422	-0.00197577	2.69107	1.78281	1	38	0.0145755	0.00200639	0	-4.88488e-05	0.494095	0.211032	8.99961	3.18051e-05	3.70905e-05	1.61008e-05	3.02803e-05	2.48924e-05	2.7841e-05	0.198209	0.111827	1.40715	3.70221e-06	4.53176e-07	5.51759e-07	1.02748e-06	6.28783e-07	3.38599e-07	0.0799711	0.112042	0.137655	54.4823	1782.81	1272.5	2190.36	-35.5177	0.0000000E+000	0.0000000E+000	0.0000000E+000	35.5177	0.0000000E+000	0.0000000E+000	0.0000000E+000	-35.5177	0.0000000E+000	0.0000000E+000	0.0000000E+000	-54.4823	0.0000000E+000	0.0000000E+000	0.0000000E+000	54.4823	0.713758	35.5177	4.38005e-06
3163.04	6.38647	16.4478	17.6442	-68.7795	630.63	0.459291	-0.00223461	3.05919	2.6584	1	38	0.0139539	0.000790847	0	-4.66552e-05	0.518426	0.287486	9.24665	2.00293e-05	3.03666e-05	3.0122e-05	2.61522e-05	2.83889e-05	2.88443e-05	0.791785	0.158405	3.61451	5.3811e-06	2.70545e-06	7.52884e-07	7.82941e-07	3.66009e-07	7.08535e-07	0.0205143	0.0528328	0.0566758	68.7795	2658.39	1032.22	2851.76	-21.2205	0.0000000E+000	0.0000000E+000	0.0000000E+000	21.2205	0.0000000E+000	0.0000000E+000	0.0000000E+000	-21.2205	0.0000000E+000	0.0000000E+000	0.0000000E+000	-68.7795	0.0000000E+000	0.0000000E+000	0.0000000E+000	68.7795	0.388286	21.2205	-7.49763e-09
999.682	13.6826	44.5726	46.6255	-72.9349	636.414	0.459274	-0.000135148	3.57183	3.26423	1	39	0.0140345	0.000301004	0	-5.0705e-05	0.480076	0.240339	8.85142	3.1736e-05	3.45964e-05	2.81299e-05	2.71846e-05	1.51483e-05	1.2069e-05	1.18849	0.114722	4.28965	2.96705e-06	1.79358e-06	3.70821e-07	6.97438e-07	1.97065e-07	2.12645e-07	0.00629395	0.0205032	0.0214475	72.9349	3264.23	1002.03	3414.56	-17.0651	0.0000000E+000	0.0000000E+000	0.0000000E+000	17.0651	0.0000000E+000	0.0000000E+000	0.0000000E+000	-17.0651	0.0000000E+000	0.0000000E+000	0.0000000E+000	-72.9349	0.0000000E+000	0.0000000E+000	0.0000000E+000	72.9349	0.306974	17.0651	-2.3487e-07
316.316	36.6684	116.086	121.74	-72.4701	641.942	0.459311	-1.45656e-05	4.33429	3.94107	1	39	0.012998	0.000106769	0	-5.08829e-05	0.438132	0.240714	9.36751	2.35203e-05	2.51581e-05	1.862e-05	1.261e-05	1.77992e-05	2.4505e-05	0.819569	0.345179	11.531	6.18757e-07	3.2859e-07	2.26617e-07	3.05327e-07	1.89809e-07	2.46758e-07	0.00247415	0.00783277	0.00821424	72.4701	3941.07	1244.87	4133.01	-17.5299	0.0000000E+000	0.0000000E+000	0.0000000E+000	17.5299	0.0000000E+000	0.0000000E+000	0.0000000E+000	-17.5299	0.0000000E+000	0.0000000E+000	0.0000000E+000	-72.4701	0.0000000E+000	0.0000000E+000	0.0000000E+000	72.4701	0.315872	17.5298	-9.12417e-08
[...]
9.99682	1026.24	1346.6	1693.08	-52.6891	658.733	0.459309	-6.45182e-05	11.8227	7.47901	1	41	0.0128716	7.60251e-06	0	-5.12311e-05	0.878384	0.51772	18.6159	4.18006e-05	3.85011e-05	3.83066e-05	6.30336e-05	3.78098e-05	3.01893e-05	0.970357	0.229669	6.12846	5.86075e-08	2.43133e-08	6.74e-09	3.41152e-08	6.53104e-09	8.76349e-09	0.00035801	0.00046977	0.00059064	52.6891	7479.01	5699.72	9403.32	-37.3109	0.0000000E+000	0.0000000E+000	0.0000000E+000	37.3109	0.0000000E+000	0.0000000E+000	0.0000000E+000	-37.3109	0.0000000E+000	0.0000000E+000	0.0000000E+000	-52.6891	0.0000000E+000	0.0000000E+000	0.0000000E+000	52.6891	0.762096	37.3109	4.03226e-08
3.16296	2529.51	1717.39	3057.43	-34.1743	667.174	0.459327	-6.7268e-05	29.2993	9.24452	1	41	0.0128857	4.21454e-06	0	-5.14455e-05	0.454483	0.218166	8.47661	2.98387e-05	1.35758e-05	2.23163e-05	2.87842e-05	2.25581e-05	1.04463e-05	0.922613	0.129233	5.30619	3.41003e-08	1.52398e-08	3.76884e-09	7.72148e-09	4.70791e-09	2.3479e-09	0.000270598	0.000183721	0.000327073	34.1743	9244.52	13616	16457.8	-55.8257	0.0000000E+000	0.0000000E+000	0.0000000E+000	55.8257	0.0000000E+000	0.0000000E+000	0.0000000E+000	-55.8257	0.0000000E+000	0.0000000E+000	0.0000000E+000	-34.1743	0.0000000E+000	0.0000000E+000	0.0000000E+000	34.1743	1.47288	55.8257	-1.3371e-07
1.00006	3833.79	1217	4022.31	-17.6116	690.596	0.459318	-7.45015e-05	130.768	11.9711	1	42	0.0128649	3.19838e-06	0	-5.1695e-05	0.273616	0.190725	4.58429	1.62104e-05	1.76471e-05	1.2454e-05	9.53125e-06	1.52353e-05	8.73874e-06	0.779455	0.0453354	1.33138	2.25243e-08	9.98229e-09	7.12527e-10	3.59156e-09	6.87076e-10	5.35908e-10	0.00023696	7.5221e-05	0.000248613	17.6116	11971.1	37711.1	39565.6	-72.3884	0.0000000E+000	0.0000000E+000	0.0000000E+000	72.3884	0.0000000E+000	0.0000000E+000	0.0000000E+000	-72.3884	0.0000000E+000	0.0000000E+000	0.0000000E+000	-17.6116	0.0000000E+000	0.0000000E+000	0.0000000E+000	17.6116	3.15019	72.3884	1.36874e-07
0.316193	4457.18	706.847	4512.88	-9.01127	756.391	0.459332	-7.32835e-05	712.103	17.4697	1	42	0.0128642	2.85054e-06	0	-5.35917e-05	0.142534	0.0737547	2.50049	5.89752e-06	9.40289e-06	6.06239e-06	8.51848e-06	4.98566e-06	6.51248e-06	0.782992	0.0346188	1.44399	2.04851e-08	8.44858e-09	3.92659e-10	2.62139e-09	1.58394e-10	1.87557e-10	0.000218853	3.47071e-05	0.000221588	9.01127	17469.7	110159	111536	-80.9887	0.0000000E+000	0.0000000E+000	0.0000000E+000	80.9887	0.0000000E+000	0.0000000E+000	0.0000000E+000	-80.9887	0.0000000E+000	0.0000000E+000	0.0000000E+000	-9.01127	0.0000000E+000	0.0000000E+000	0.0000000E+000	9.01127	6.30572	80.9887	-8.63488e-07
0.0999518	4803.2	361.507	4816.78	-4.30418	960.972	0.459346	-6.73686e-05	4404.67	24.8103	1	42	0.0128631	2.67048e-06	0	-5.70771e-05	0.121817	0.0569473	1.534	3.78269e-06	8.87101e-06	4.89657e-06	9.14765e-06	3.09645e-06	4.52621e-06	0.786917	0.0310235	1.49647	1.95039e-08	7.48956e-09	2.44656e-10	2.2176e-09	1.46452e-10	1.93419e-10	0.000207022	1.55813e-05	0.000207607	4.30418	24810.3	329645	330577	-85.6958	0.0000000E+000	0.0000000E+000	0.0000000E+000	85.6958	0.0000000E+000	0.0000000E+000	0.0000000E+000	-85.6958	0.0000000E+000	0.0000000E+000	0.0000000E+000	-4.30418	0.0000000E+000	0.0000000E+000	0.0000000E+000	4.30418	13.2866	85.6958	-1.78691e-06

File: 240223-OCV-EIS-Fe2Fe3_5mM-HCl1M-225RPM-Ag_AgCl_BLF8-GC-RDE-1minRestVSEoc-3ppf-14p1mVAmplitude_05_OCV_C15.mpt
EC-Lab ASCII FILE
Nb header lines : 47

Open Circuit Voltage

Run on channel : 15 (SN 19485)
User :
Electrode connection : standard
Potential control : Ewe
Ewe ctrl range : min = -1.00 V, max = 1.00 V
Ewe,I filtering : 50 kHz
Safety Limits :
	Do not start on E overload
Channel : Floating
Acquisition started on : 02/23/2024 15:54:32.363
Loaded Setting File :  NONE
Saved on :
	File : 240223-OCV-EIS-Fe2Fe3_5mM-HCl1M-225RPM-Ag_AgCl_BLF8-GC-RDE-1minRestVSEoc-3ppf-14p1mVAmplitude_05_OCV_C15.mpr
	Directory : C:\Data\mathias\RDE-RPM-variation\
	Host : 192.168.0.1
Device : VMP-300 (SN 0826)
Address : USB
EC-Lab for windows v11.52 (software)
Internet server v11.52 (firmware)
Command interpretor v11.52 (firmware)
Electrode material :
Initial state :
Electrolyte :
Comments :
Cable : special
Reference electrode : SCE Saturated Calomel Electrode (0.241 V)
Electrode surface area : 0.001 cm²
Characteristic mass : 0.001 g
Equivalent Weight : 0.000 g/eq.
Density : 0.000 g/cm3
Volume (V) : 0.001 cm³
Record EIS quality indicators
Cycle Definition : Charge/Discharge alternance
tR (h:m:s)          0:01:0.0000
dER/dt (mV/h)       1.0
record              <Ewe>
dER (mV)            0.00
dtR (s)             0.5000
E range min (V)     -1.000
E range max (V)     1.000

mode	error	time/s	<Ewe/V>
3	0	961.472	0.458242
3	0	961.972	0.459202
3	0	962.472	0.459423
3	0	962.972	0.459506
3	0	963.472	0.459543
3	0	963.972	0.459564
3	0	964.472	0.459576
3	0	964.972	0.45958
3	0	965.472	0.459584
3	0	965.972	0.45959
3	0	966.472	0.459586
3	0	966.972	0.459584
3	0	967.472	0.459586
3	0	967.972	0.459585
3	0	968.472	0.459584
3	0	968.972	0.459582
3	0	969.472	0.459581
3	0	969.972	0.45958
3	0	970.472	0.459579
3	0	970.972	0.459581
3	0	971.472	0.459583
3	0	971.972	0.459581
3	0	972.472	0.459581
3	0	972.972	0.459583
3	0	973.472	0.459579
3	0	973.972	0.459577
3	0	974.472	0.459578
3	0	974.972	0.459578
3	0	975.472	0.459574
3	0	975.972	0.459576
3	0	976.472	0.459576
3	0	976.972	0.459577
3	0	977.472	0.459574
3	0	977.972	0.459575
3	0	978.472	0.459575
3	0	978.972	0.459574
3	0	979.472	0.459576
3	0	979.972	0.459578
3	0	980.472	0.45958
3	0	980.972	0.459583
3	0	981.472	0.459582
3	0	981.972	0.45958
3	0	982.472	0.459578
3	0	982.972	0.459579
3	0	983.472	0.459578
3	0	983.972	0.45957
3	0	984.472	0.459568
3	0	984.972	0.459568
3	0	985.472	0.459571
3	0	985.972	0.459571
3	0	986.472	0.459574
3	0	986.972	0.459575
3	0	987.472	0.459574
3	0	987.972	0.459574
3	0	988.472	0.459571
3	0	988.972	0.459571
3	0	989.472	0.45957
3	0	989.972	0.459569
3	0	990.472	0.459571
3	0	990.972	0.459573
3	0	991.472	0.459568
3	0	991.972	0.459563
3	0	992.472	0.459561
3	0	992.972	0.45956
3	0	993.472	0.459559
3	0	993.972	0.459563
3	0	994.472	0.45956
3	0	994.972	0.459558
3	0	995.472	0.459559
3	0	995.972	0.459559
3	0	996.472	0.459559
3	0	996.972	0.459556
3	0	997.472	0.459557
3	0	997.972	0.459555
3	0	998.472	0.459556
3	0	998.972	0.459556
3	0	999.472	0.459553
3	0	999.972	0.459551
3	0	1000.47	0.459555
3	0	1000.97	0.459554
3	0	1001.47	0.459551
3	0	1001.97	0.459553
3	0	1002.47	0.459553
3	0	1002.97	0.459554
3	0	1003.47	0.459554
3	0	1003.97	0.459556
3	0	1004.47	0.459552
3	0	1004.97	0.459555
3	0	1005.47	0.459555
3	0	1005.97	0.459555
3	0	1006.47	0.459557
3	0	1006.97	0.459556
3	0	1007.47	0.459557
3	0	1007.97	0.459557
3	0	1008.47	0.459555
3	0	1008.97	0.459557
3	0	1009.47	0.459558
3	0	1009.97	0.459559
3	0	1010.47	0.459558
3	0	1010.97	0.459556
3	0	1011.47	0.459559
3	0	1011.97	0.459557
3	0	1012.47	0.459559
3	0	1012.97	0.459556
3	0	1013.47	0.45955
3	0	1013.97	0.45955
3	0	1014.47	0.45955
3	0	1014.97	0.459551
3	0	1015.47	0.459553
3	0	1015.97	0.459553
3	0	1016.47	0.459552
3	0	1016.97	0.459555
3	0	1017.47	0.459555
3	0	1017.97	0.459554
3	0	1018.47	0.459558
3	0	1018.97	0.459557
3	0	1019.47	0.459559
3	0	1019.97	0.45956
3	0	1020.47	0.45956
3	0	1020.97	0.45956
3	0	1021.13	0.459559