Folder: Thesis/Python/Data/RDE (part 7)

File: 240222-CV-EIS-Fe2Fe3_5mM-HCl1M-0RPM-Ag_AgCl_BLF8-GC-RDE-DefaultSettings_03_PEIS_C15.mpt
EC-Lab ASCII FILE
Nb header lines : 66

Potentio Electrochemical Impedance Spectroscopy

Run on channel : 15 (SN 19485)
User :
Electrode connection : standard
Potential control : Ewe
Ewe ctrl range : min = -1.00 V, max = 1.00 V
Ewe,I filtering : <None>
Safety Limits :
	Do not start on E overload
Channel : Floating
Acquisition started on : 02/22/2024 14:35:39.248
Loaded Setting File :  C:\Data\mathias\RDE-RPM-variation\240219-CV-EIS-Fe2Fe3_5mM-HCl1M-RPMtest-Ag_AgCl_BLF8-GC-RDE.mps
Saved on :
	File : 240222-CV-EIS-Fe2Fe3_5mM-HCl1M-0RPM-Ag_AgCl_BLF8-GC-RDE-DefaultSettings_03_PEIS_C15.mpr
	Directory : C:\Data\mathias\RDE-RPM-variation\
	Host : 192.168.0.1
Device : VMP-300 (SN 0826)
Address : USB
EC-Lab for windows v11.52 (software)
Internet server v11.52 (firmware)
Command interpretor v11.52 (firmware)
Electrode material :
Initial state :
Electrolyte :
Comments :
Cable : special
Electrode surface area : 0.001 cm²
Characteristic mass : 0.001 g
Equivalent Weight : 0.000 g/eq.
Density : 0.000 g/cm3
Volume (V) : 0.001 cm³
Record EIS quality indicators
Cycle Definition : Charge/Discharge alternance
Mode                Single sine
E (V)               0.0000
vs.                 Ref
tE (h:m:s)          0:01:0.0000
record              0
dI                  0.000
unit dI             mA
dt (s)              0.000
fi                  400.000
unit fi             kHz
ff                  100.000
unit ff             mHz
Nd                  10
Points              per decade
spacing             Logarithmic
Va (mV)             7.0
pw                  0.10
Na                  3
corr                0
E range min (V)     -1.000
E range max (V)     1.000
I Range             Auto
Bandwidth           8
nc cycles           2
goto Ns'            0
nr cycles           0
inc. cycle          1

freq/Hz	Re(Z)/Ohm	-Im(Z)/Ohm	|Z|/Ohm	Phase(Z)/deg	time/s	<Ewe>/V	<I>/mA	Cs/µF	Cp/µF	cycle number	I Range	|Ewe|/V	|I|/A	Ns	(Q-Qo)/mA.h	THD Ewe/%	NSD Ewe/%	NSR Ewe/%	|Ewe h2|/V	|Ewe h3|/V	|Ewe h4|/V	|Ewe h5|/V	|Ewe h6|/V	|Ewe h7|/V	THD I/%	NSD I/%	NSR I/%	|I h2|/A	|I h3|/A	|I h4|/A	|I h5|/A	|I h6|/A	|I h7|/A	Re(Y)/Ohm-1	Im(Y)/Ohm-1	|Y|/Ohm-1	Phase(Y)/deg	Re(C)/nF	Im(C)/nF	|C|/nF	Phase(C)/deg	Re(M)	Im(M)	|M|	Phase(M)/deg	Re(Permittivity)	Im(Permittivity)	|Permittivity|	Phase(Permittivity)/deg	Re(Resistivity)/Ohm.cm	Im(Resistivity)/Ohm.cm	|Resistivity|/Ohm.cm	Phase(Resistivity)/deg	Re(Conductivity)/mS/cm	Im(Conductivity)/mS/cm	|Conductivity|/mS/cm	Phase(Conductivity)/deg	Tan(Delta)	Loss Angle(Delta)/deg	dq/mA.h
399996	3.64604	1.55605	3.9642	-23.1117	422.679	-0.000168742	-0.0320311	0.255706	0.0393981	1	38	0.00645374	0.001628	0	-0.000590532	-1	-1	-1	0	0	0	0	0	0	-1	-1	-1	0	0	0	0	0	0	0.232012	0.0990174	0.252258	23.1117	39.3981	92.3154	100.371	-66.8883	0.0000000E+000	0.0000000E+000	0.0000000E+000	66.8883	0.0000000E+000	0.0000000E+000	0.0000000E+000	-66.8883	0.0000000E+000	0.0000000E+000	0.0000000E+000	-23.1117	0.0000000E+000	0.0000000E+000	0.0000000E+000	23.1117	2.34314	66.8883	-0.000590532
20032.3	3.77022	2.20414	4.36724	-30.3113	437.591	-0.000167325	-0.0299216	3.60455	0.91815	1	38	0.00728273	0.00166758	0	-0.00072481	1.0582	0.568284	18.3973	3.25975e-05	3.19811e-05	3.37394e-05	2.58111e-05	1.5347e-05	2.98386e-05	0.113055	0.0616089	1.72969	7.0525e-07	1.1026e-06	7.91286e-07	6.10875e-07	5.11447e-07	5.38144e-07	0.197675	0.115564	0.228978	30.3113	918.151	1570.52	1819.21	-59.6887	0.0000000E+000	0.0000000E+000	0.0000000E+000	59.6887	0.0000000E+000	0.0000000E+000	0.0000000E+000	-59.6887	0.0000000E+000	0.0000000E+000	0.0000000E+000	-30.3113	0.0000000E+000	0.0000000E+000	0.0000000E+000	30.3113	1.71052	59.6887	-1.03278e-05
1002.75	9.70321	32.8957	34.2969	-73.5656	452.788	-0.000295051	-0.0252928	4.8249	4.4387	1	39	0.00710547	0.000207175	0	-0.000845719	1.15763	0.647939	18.3225	4.3753e-05	2.52239e-05	4.01579e-05	3.43608e-05	2.32572e-05	1.65043e-05	0.70958	0.242834	6.42455	1.03839e-06	7.44036e-07	3.71406e-07	4.8674e-07	2.09063e-07	2.33481e-07	0.00824909	0.0279659	0.0291572	73.5656	4438.7	1309.28	4627.78	-16.4344	0.0000000E+000	0.0000000E+000	0.0000000E+000	16.4344	0.0000000E+000	0.0000000E+000	0.0000000E+000	-16.4344	0.0000000E+000	0.0000000E+000	0.0000000E+000	-73.5656	0.0000000E+000	0.0000000E+000	0.0000000E+000	73.5656	0.294969	16.4344	-9.72745e-06
50.2089	116.479	395.654	412.443	-73.5958	467.545	-0.000302358	-0.024715	8.01169	7.3727	1	40	0.00692823	1.6798e-05	0	-0.000947594	1.30186	0.438841	28.8228	2.26139e-05	2.93707e-05	4.10313e-05	4.35261e-05	3.76231e-05	2.31416e-05	0.897078	0.259684	15.599	5.83173e-08	5.56965e-08	5.79921e-08	9.08654e-08	2.88436e-08	4.10082e-08	0.000684729	0.00232588	0.00242458	73.5958	7372.7	2170.49	7685.56	-16.4042	0.0000000E+000	0.0000000E+000	0.0000000E+000	16.4042	0.0000000E+000	0.0000000E+000	0.0000000E+000	-16.4042	0.0000000E+000	0.0000000E+000	0.0000000E+000	-73.5958	0.0000000E+000	0.0000000E+000	0.0000000E+000	73.5958	0.294396	16.4042	-7.28696e-06
2.51368	1712.88	4414.55	4735.21	-68.7933	486.58	-0.000246375	-0.0246343	14.3425	12.4657	1	41	0.00689642	1.45641e-06	0	-0.00107689	0.726345	0.392812	14.1918	3.03316e-05	1.3583e-05	1.99092e-05	1.19494e-05	1.5919e-05	2.13745e-05	0.744952	0.609997	13.5084	4.86471e-09	4.12467e-09	3.88162e-09	4.49556e-09	2.29311e-09	4.59319e-09	7.63922e-05	0.000196883	0.000211184	68.7933	12465.7	4836.81	13371.2	-21.2067	0.0000000E+000	0.0000000E+000	0.0000000E+000	21.2067	0.0000000E+000	0.0000000E+000	0.0000000E+000	-21.2067	0.0000000E+000	0.0000000E+000	0.0000000E+000	-68.7933	0.0000000E+000	0.0000000E+000	0.0000000E+000	68.7933	0.388008	21.2067	-1.90855e-05
0.125939	22500.1	36306.4	42713.1	-58.2123	714.816	-0.000263551	-0.0244315	34.8079	25.1491	1	41	0.0068935	1.61391e-07	0	-0.00263056	0.188932	0.102416	2.99944	3.59406e-06	9.18705e-06	3.47802e-06	4.84453e-06	2.85712e-06	2.25738e-06	9.76742	30.4395	31.5864	1.23321e-08	6.09931e-09	3.58935e-09	4.10924e-09	3.57219e-09	3.25974e-09	1.23328e-05	1.99004e-05	2.3412e-05	58.2123	25149.1	15585.6	29586.9	-31.7877	0.0000000E+000	0.0000000E+000	0.0000000E+000	31.7877	0.0000000E+000	0.0000000E+000	0.0000000E+000	-31.7877	0.0000000E+000	0.0000000E+000	0.0000000E+000	-58.2123	0.0000000E+000	0.0000000E+000	0.0000000E+000	58.2123	0.619728	31.7877	-0.000331859
31751	3.67618	1.56411	3.99509	-23.0484	791.571	-0.000160409	-0.0262349	3.20475	0.49122	2	38	0.00723729	0.00181154	0	-0.00316079	0.966303	0.635534	18.7865	1.75134e-05	3.11942e-05	2.21934e-05	2.32622e-05	2.44047e-05	2.49182e-05	0.104846	0.0503454	1.58658	7.25326e-07	1.05706e-06	5.77377e-07	8.56799e-07	2.64277e-07	5.0235e-07	0.230326	0.0979973	0.250307	23.0484	491.22	1154.53	1254.69	-66.9516	0.0000000E+000	0.0000000E+000	0.0000000E+000	66.9516	0.0000000E+000	0.0000000E+000	0.0000000E+000	-66.9516	0.0000000E+000	0.0000000E+000	0.0000000E+000	-23.0484	0.0000000E+000	0.0000000E+000	0.0000000E+000	23.0484	2.35033	66.9516	-9.87318e-06
[...]
2519.19	5.74148	15.0314	16.0906	-69.0949	1160.44	-0.000299637	-0.0270766	4.20299	3.66786	3	38	0.00677496	0.00042105	0	-0.00567826	1.06304	0.505796	19.8613	3.06693e-05	3.62013e-05	2.67233e-05	2.37078e-05	1.01005e-05	3.02059e-05	0.506199	0.301403	6.95937	6.23188e-07	1.41902e-06	7.42151e-07	8.2306e-07	5.72153e-07	4.63124e-07	0.0221757	0.0580569	0.0621479	69.0949	3667.86	1400.99	3926.32	-20.9051	0.0000000E+000	0.0000000E+000	0.0000000E+000	20.9051	0.0000000E+000	0.0000000E+000	0.0000000E+000	-20.9051	0.0000000E+000	0.0000000E+000	0.0000000E+000	-69.0949	0.0000000E+000	0.0000000E+000	0.0000000E+000	69.0949	0.381965	20.9051	-7.70049e-06
126.171	54.457	196.243	203.659	-74.4908	1175.07	-0.000236557	-0.024934	6.42784	5.96826	3	39	0.00631129	3.09895e-05	0	-0.00577953	0.847142	0.632655	21.1066	3.00947e-05	2.2145e-05	1.9864e-05	1.50052e-05	1.86299e-05	1.38469e-05	2.18485	1.0547	42.9393	3.96811e-07	2.7999e-07	2.68297e-07	2.06482e-07	1.43953e-07	2.08505e-07	0.00131294	0.00473138	0.00491017	74.4908	5968.26	1656.18	6193.79	-15.5092	0.0000000E+000	0.0000000E+000	0.0000000E+000	15.5092	0.0000000E+000	0.0000000E+000	0.0000000E+000	-15.5092	0.0000000E+000	0.0000000E+000	0.0000000E+000	-74.4908	0.0000000E+000	0.0000000E+000	0.0000000E+000	74.4908	0.277497	15.5092	-7.57392e-06
6.31569	755.739	2281.98	2403.86	-71.6763	1190.27	-0.000276019	-0.0245664	11.043	9.95156	3	41	0.00689956	2.8702e-06	0	-0.00588257	1.36536	0.71034	25.9106	2.06487e-05	3.3469e-05	3.64311e-05	2.39169e-05	4.17241e-05	5.14047e-05	0.718943	0.374889	12.1606	5.15907e-09	7.43725e-09	7.1459e-09	1.10621e-08	8.60547e-09	8.94359e-09	0.000130783	0.000394904	0.000415997	71.6763	9951.57	3295.73	10483.1	-18.3237	0.0000000E+000	0.0000000E+000	0.0000000E+000	18.3237	0.0000000E+000	0.0000000E+000	0.0000000E+000	-18.3237	0.0000000E+000	0.0000000E+000	0.0000000E+000	-71.6763	0.0000000E+000	0.0000000E+000	0.0000000E+000	71.6763	0.331177	18.3237	-9.31212e-06
0.316193	10077.9	20333.6	22694.1	-63.6357	1283.98	-0.000227182	-0.0245702	24.7544	19.8728	3	41	0.00689356	3.0376e-07	0	-0.00652043	0.280113	0.200771	4.74175	8.60616e-06	8.76692e-06	4.44638e-06	1.05709e-05	4.68482e-06	5.34085e-06	2.37188	7.58358	31.2925	3.34771e-09	3.39675e-09	2.61748e-09	2.79925e-09	1.5051e-09	1.81173e-09	1.9568e-05	3.94812e-05	4.40644e-05	63.6357	19872.8	9849.5	22179.7	-26.3643	0.0000000E+000	0.0000000E+000	0.0000000E+000	26.3643	0.0000000E+000	0.0000000E+000	0.0000000E+000	-26.3643	0.0000000E+000	0.0000000E+000	0.0000000E+000	-63.6357	0.0000000E+000	0.0000000E+000	0.0000000E+000	63.6357	0.495628	26.3643	-0.00013392
0.0999518	26675.5	37889.2	46337.6	-54.8529	1488.56	-0.000239624	-0.0247674	42.0256	28.0981	3	41	0.00689469	1.48792e-07	0	-0.00791816	0.163624	0.119454	2.81172	2.4966e-06	5.3161e-06	2.77878e-06	5.33393e-06	5.37891e-06	3.13969e-06	21.8657	68.173	37.1756	2.29929e-08	1.45059e-08	1.04051e-08	8.73344e-09	6.70818e-09	6.19592e-09	1.24236e-05	1.76461e-05	2.15807e-05	54.8529	28098.1	19782.2	34363.4	-35.1471	0.0000000E+000	0.0000000E+000	0.0000000E+000	35.1471	0.0000000E+000	0.0000000E+000	0.0000000E+000	-35.1471	0.0000000E+000	0.0000000E+000	0.0000000E+000	-54.8529	0.0000000E+000	0.0000000E+000	0.0000000E+000	54.8529	0.704041	35.1471	-0.000421194

File: 240222-EIS-Fe2Fe3_5mM-HCl1M-0RPM-Ag_AgCl_BLF8-GC-RDE-5minVsOCV-5ppf-3scans_C15.mpt
EC-Lab ASCII FILE
Nb header lines : 66

Potentio Electrochemical Impedance Spectroscopy

Run on channel : 15 (SN 19485)
User :
Electrode connection : standard
Potential control : Ewe
Ewe ctrl range : min = -1.00 V, max = 1.00 V
Ewe,I filtering : <None>
Safety Limits :
	Do not start on E overload
Channel : Floating
Acquisition started on : 02/22/2024 15:30:34.416
Loaded Setting File :  NONE
Saved on :
	File : 240222-EIS-Fe2Fe3_5mM-HCl1M-0RPM-Ag_AgCl_BLF8-GC-RDE-5minVsOCV-5ppf-3scans_C15.mpr
	Directory : C:\Data\mathias\RDE-RPM-variation\
	Host : 192.168.0.1
Device : VMP-300 (SN 0826)
Address : USB
EC-Lab for windows v11.52 (software)
Internet server v11.52 (firmware)
Command interpretor v11.52 (firmware)
Electrode material :
Initial state :
Electrolyte :
Comments :
Cable : special
Electrode surface area : 0.001 cm²
Characteristic mass : 0.001 g
Equivalent Weight : 0.000 g/eq.
Density : 0.000 g/cm3
Volume (V) : 0.001 cm³
Record EIS quality indicators
Cycle Definition : Charge/Discharge alternance
Mode                Single sine
E (V)               0.0000
vs.                 Ref
tE (h:m:s)          0:05:0.0000
record              0
dI                  0.000
unit dI             mA
dt (s)              0.000
fi                  400.000
unit fi             kHz
ff                  100.000
unit ff             mHz
Nd                  10
Points              per decade
spacing             Logarithmic
Va (mV)             7.0
pw                  0.10
Na                  5
corr                0
E range min (V)     -1.000
E range max (V)     1.000
I Range             Auto
Bandwidth           8
nc cycles           3
goto Ns'            0
nr cycles           0
inc. cycle          1

freq/Hz	Re(Z)/Ohm	-Im(Z)/Ohm	|Z|/Ohm	Phase(Z)/deg	time/s	<Ewe>/V	<I>/mA	Cs/µF	Cp/µF	cycle number	I Range	|Ewe|/V	|I|/A	Ns	(Q-Qo)/mA.h	THD Ewe/%	NSD Ewe/%	NSR Ewe/%	|Ewe h2|/V	|Ewe h3|/V	|Ewe h4|/V	|Ewe h5|/V	|Ewe h6|/V	|Ewe h7|/V	THD I/%	NSD I/%	NSR I/%	|I h2|/A	|I h3|/A	|I h4|/A	|I h5|/A	|I h6|/A	|I h7|/A	Re(Y)/Ohm-1	Im(Y)/Ohm-1	|Y|/Ohm-1	Phase(Y)/deg	Re(C)/nF	Im(C)/nF	|C|/nF	Phase(C)/deg	Re(M)	Im(M)	|M|	Phase(M)/deg	Re(Permittivity)	Im(Permittivity)	|Permittivity|	Phase(Permittivity)/deg	Re(Resistivity)/Ohm.cm	Im(Resistivity)/Ohm.cm	|Resistivity|/Ohm.cm	Phase(Resistivity)/deg	Re(Conductivity)/mS/cm	Im(Conductivity)/mS/cm	|Conductivity|/mS/cm	Phase(Conductivity)/deg	Tan(Delta)	Loss Angle(Delta)/deg	dq/mA.h
399996	3.65827	1.57791	3.98406	-23.3319	303.393	-0.000165778	-0.0214833	0.252163	0.0395545	1	38	0.00652594	0.00163801	0	-0.00193645	-1	-1	-1	0	0	0	0	0	0	-1	-1	-1	0	0	0	0	0	0	0.230475	0.0994104	0.251	23.3319	39.5545	91.7039	99.8707	-66.6681	0.0000000E+000	0.0000000E+000	0.0000000E+000	66.6681	0.0000000E+000	0.0000000E+000	0.0000000E+000	-66.6681	0.0000000E+000	0.0000000E+000	0.0000000E+000	-23.3319	0.0000000E+000	0.0000000E+000	0.0000000E+000	23.3319	2.31842	66.6681	-0.00193645
7967.67	4.16886	5.16817	6.63999	-51.1089	334.223	-0.000258926	-0.0219823	3.86502	2.34149	1	38	0.00732002	0.00110242	0	-0.00213	1.08065	0.433482	17.2753	3.44326e-05	1.57246e-05	2.81285e-05	3.55251e-05	3.2916e-05	2.70181e-05	0.190619	0.0884446	2.56262	1.28714e-06	4.46694e-07	5.61272e-07	5.39595e-07	8.75683e-07	8.44238e-07	0.0945547	0.11722	0.150603	51.1089	2341.49	1888.74	3008.31	-38.8911	0.0000000E+000	0.0000000E+000	0.0000000E+000	38.8911	0.0000000E+000	0.0000000E+000	0.0000000E+000	-38.8911	0.0000000E+000	0.0000000E+000	0.0000000E+000	-51.1089	0.0000000E+000	0.0000000E+000	0.0000000E+000	51.1089	0.806641	38.8911	-9.36244e-06
158.831	44.983	158.585	164.842	-74.1639	365.941	-0.000244833	-0.0204231	6.31862	5.8481	1	39	0.00631516	3.83104e-05	0	-0.00231551	1.13838	0.605391	19.9723	1.96074e-05	3.07313e-05	2.55214e-05	3.12822e-05	3.22993e-05	2.38286e-05	1.73286	1.00588	33.2813	2.47087e-07	2.25611e-07	2.88339e-07	2.84777e-07	2.61403e-07	1.69055e-07	0.00165544	0.00583618	0.00606643	74.1639	5848.1	1658.82	6078.81	-15.8361	0.0000000E+000	0.0000000E+000	0.0000000E+000	15.8361	0.0000000E+000	0.0000000E+000	0.0000000E+000	-15.8361	0.0000000E+000	0.0000000E+000	0.0000000E+000	-74.1639	0.0000000E+000	0.0000000E+000	0.0000000E+000	74.1639	0.283652	15.8361	-1.03199e-05
3.16616	1387.74	3923.3	4161.5	-70.5204	402.064	-0.000250075	-0.0200747	12.8126	11.3878	1	41	0.00704521	1.69295e-06	0	-0.0025175	0.86795	0.385341	15.2389	1.43934e-05	3.59117e-05	1.13975e-05	2.12154e-05	2.76069e-05	1.97502e-05	0.827634	0.357779	12.6886	3.64017e-09	8.20081e-09	1.92198e-09	6.33876e-09	5.34659e-09	4.25884e-09	8.01323e-05	0.000226543	0.000240298	70.5204	11387.8	4028.05	12079.2	-19.4796	0.0000000E+000	0.0000000E+000	0.0000000E+000	19.4796	0.0000000E+000	0.0000000E+000	0.0000000E+000	-19.4796	0.0000000E+000	0.0000000E+000	0.0000000E+000	-70.5204	0.0000000E+000	0.0000000E+000	0.0000000E+000	70.5204	0.353717	19.4796	-2.12399e-05
317705	3.62684	1.28178	3.84668	-19.4642	891.54	-0.000195939	-0.0208837	0.390824	0.0433949	2	38	0.00714482	0.0018574	0	-0.00519236	-1	-1	-1	0	0	0	0	0	0	-1	-1	-1	0	0	0	0	0	0	0.245107	0.0866249	0.259964	19.4642	43.3949	122.787	130.23	-70.5358	0.0000000E+000	0.0000000E+000	0.0000000E+000	70.5358	0.0000000E+000	0.0000000E+000	0.0000000E+000	-70.5358	0.0000000E+000	0.0000000E+000	0.0000000E+000	-19.4642	0.0000000E+000	0.0000000E+000	0.0000000E+000	19.4642	2.82953	70.5358	-1.17186e-05
6332.63	4.36476	6.46092	7.79709	-55.9585	922.478	-0.000309181	-0.0213567	3.88993	2.67095	2	38	0.00715279	0.000917366	0	-0.00536792	0.824938	0.549103	17.9604	2.17929e-05	2.10477e-05	2.41987e-05	1.69559e-05	2.61625e-05	2.01821e-05	0.17338	0.113406	3.06084	6.92843e-07	8.41353e-07	3.59118e-07	5.74685e-07	4.22608e-07	4.9239e-07	0.0717952	0.106274	0.128253	55.9585	2670.95	1804.39	3223.32	-34.0415	0.0000000E+000	0.0000000E+000	0.0000000E+000	34.0415	0.0000000E+000	0.0000000E+000	0.0000000E+000	-34.0415	0.0000000E+000	0.0000000E+000	0.0000000E+000	-55.9585	0.0000000E+000	0.0000000E+000	0.0000000E+000	55.9585	0.675564	34.0415	-1.22475e-05
126.171	54.3013	194.156	201.606	-74.3748	954.1	-0.000253352	-0.0195743	6.49695	6.02563	2	39	0.0064585	3.20352e-05	0	-0.00554445	0.868372	0.419494	19.3685	2.13652e-05	1.79176e-05	2.12905e-05	1.5179e-05	2.51644e-05	2.26383e-05	2.20258	0.818307	40.1473	2.58685e-07	2.45719e-07	2.06473e-07	2.623e-07	2.81962e-07	3.35886e-07	0.00133598	0.00477685	0.00496016	74.3748	6025.63	1685.24	6256.85	-15.6252	0.0000000E+000	0.0000000E+000	0.0000000E+000	15.6252	0.0000000E+000	0.0000000E+000	0.0000000E+000	-15.6252	0.0000000E+000	0.0000000E+000	0.0000000E+000	-74.3748	0.0000000E+000	0.0000000E+000	0.0000000E+000	74.3748	0.279679	15.6252	-9.79909e-06
2.51368	1747.64	4780.5	5089.94	-69.9188	992.818	-0.000256188	-0.0192284	13.2445	11.6831	2	41	0.00643056	1.26339e-06	0	-0.00575065	0.846743	0.479911	14.5139	2.45531e-05	2.07645e-05	2.30545e-05	1.59743e-05	1.97532e-05	1.70312e-05	0.959757	0.570928	14.8358	5.26203e-09	6.16051e-09	4.50246e-09	3.74014e-09	3.81722e-09	3.09946e-09	6.74569e-05	0.000184522	0.000196466	69.9188	11683.1	4271.07	12439.4	-20.0812	0.0000000E+000	0.0000000E+000	0.0000000E+000	20.0812	0.0000000E+000	0.0000000E+000	0.0000000E+000	-20.0812	0.0000000E+000	0.0000000E+000	0.0000000E+000	-69.9188	0.0000000E+000	0.0000000E+000	0.0000000E+000	69.9188	0.365576	20.0812	-2.4674e-05
[...]
200434	3.57392	0.947036	3.69727	-14.8414	2067.41	-0.000161714	-0.0208037	0.838459	0.0550114	4	38	0.00723763	0.00195756	0	-0.0113458	-1	-1	-1	0	0	0	0	0	0	-1	-1	-1	0	0	0	0	0	0	0.261447	0.0692794	0.27047	14.8414	55.0114	207.602	214.767	-75.1586	0.0000000E+000	0.0000000E+000	0.0000000E+000	75.1586	0.0000000E+000	0.0000000E+000	0.0000000E+000	-75.1586	0.0000000E+000	0.0000000E+000	0.0000000E+000	-14.8414	0.0000000E+000	0.0000000E+000	0.0000000E+000	14.8414	3.7738	75.1586	-7.1391e-06
3993.72	4.90588	9.99949	11.1381	-63.8668	2098.4	-0.000280959	-0.0213399	3.98533	3.21216	4	38	0.00662632	0.000594923	0	-0.011523	1.06353	0.535039	19.4494	2.38239e-05	2.66301e-05	3.76094e-05	2.22462e-05	2.88645e-05	2.06606e-05	0.31084	0.132388	4.72517	8.22878e-07	1.03973e-06	5.22928e-07	5.11801e-07	5.90814e-07	5.11479e-07	0.0395452	0.0806037	0.0897818	63.8668	3212.16	1575.93	3577.92	-26.1332	0.0000000E+000	0.0000000E+000	0.0000000E+000	26.1332	0.0000000E+000	0.0000000E+000	0.0000000E+000	-26.1332	0.0000000E+000	0.0000000E+000	0.0000000E+000	-63.8668	0.0000000E+000	0.0000000E+000	0.0000000E+000	63.8668	0.490613	26.1332	-1.05301e-05
79.6177	81.079	287.058	298.289	-74.2278	2130.21	-0.000280847	-0.0183214	6.9637	6.44921	4	40	0.00649518	2.17748e-05	0	-0.0116909	1.45673	0.811139	29.8386	2.7578e-05	3.39986e-05	1.37882e-05	3.47138e-05	3.81725e-05	5.19284e-05	0.687	0.299459	11.3905	4.11451e-08	7.52033e-08	3.00845e-08	8.37283e-08	5.09388e-08	4.69542e-08	0.000911242	0.00322623	0.00335245	74.2278	6449.21	1821.56	6701.52	-15.7722	0.0000000E+000	0.0000000E+000	0.0000000E+000	15.7722	0.0000000E+000	0.0000000E+000	0.0000000E+000	-15.7722	0.0000000E+000	0.0000000E+000	0.0000000E+000	-74.2278	0.0000000E+000	0.0000000E+000	0.0000000E+000	74.2278	0.282448	15.7722	-8.95637e-06
1.5871	2679.76	6875.2	7378.99	-68.7055	2177.69	-0.000237787	-0.0185165	14.5858	12.6621	4	41	0.00644281	8.73129e-07	0	-0.0119326	0.622604	0.384691	11.6835	1.66268e-05	1.62583e-05	1.1862e-05	1.42561e-05	1.41557e-05	1.8012e-05	0.794778	0.62819	17.9082	3.12416e-09	2.80251e-09	2.03327e-09	2.45573e-09	2.41846e-09	2.60259e-09	4.92156e-05	0.000126268	0.00013552	68.7055	12662.1	4935.36	13590	-21.2945	0.0000000E+000	0.0000000E+000	0.0000000E+000	21.2945	0.0000000E+000	0.0000000E+000	0.0000000E+000	-21.2945	0.0000000E+000	0.0000000E+000	0.0000000E+000	-68.7055	0.0000000E+000	0.0000000E+000	0.0000000E+000	68.7055	0.389773	21.2945	-3.57088e-05
0.0999518	27689.9	49883.1	57053.1	-60.9655	2644.65	-0.000276133	-0.0188297	31.921	24.402	4	41	0.00643344	1.12762e-07	0	-0.0143381	0.218303	0.14082	3.14351	6.56636e-06	4.47644e-06	3.87016e-06	6.33914e-06	5.38378e-06	4.13639e-06	4.5426	34.464	37.8012	3.11384e-09	2.76838e-09	1.28219e-09	1.29118e-09	1.30936e-09	1.00728e-09	8.50674e-06	1.53248e-05	1.75275e-05	60.9655	24402	13545.4	27909.4	-29.0345	0.0000000E+000	0.0000000E+000	0.0000000E+000	29.0345	0.0000000E+000	0.0000000E+000	0.0000000E+000	-29.0345	0.0000000E+000	0.0000000E+000	0.0000000E+000	-60.9655	0.0000000E+000	0.0000000E+000	0.0000000E+000	60.9655	0.555096	29.0345	-0.000530115