Folder: Thesis/Python/Data/RDE (part 17)

File: 240223-OCV-EIS-Fe2Fe3_5mM-HCl1M-1225RPM-Ag_AgCl_BLF8-GC-RDE-1minRestVSEoc-3ppf-14p1mVAmplitude_05_OCV_C15.mpt
EC-Lab ASCII FILE
Nb header lines : 47

Open Circuit Voltage

Run on channel : 15 (SN 19485)
User :
Electrode connection : standard
Potential control : Ewe
Ewe ctrl range : min = -1.00 V, max = 1.00 V
Ewe,I filtering : 50 kHz
Safety Limits :
	Do not start on E overload
Channel : Floating
Acquisition started on : 02/23/2024 14:49:54.683
Loaded Setting File :  NONE
Saved on :
	File : 240223-OCV-EIS-Fe2Fe3_5mM-HCl1M-1225RPM-Ag_AgCl_BLF8-GC-RDE-1minRestVSEoc-3ppf-14p1mVAmplitude_05_OCV_C15.mpr
	Directory : C:\Data\mathias\RDE-RPM-variation\
	Host : 192.168.0.1
Device : VMP-300 (SN 0826)
Address : USB
EC-Lab for windows v11.52 (software)
Internet server v11.52 (firmware)
Command interpretor v11.52 (firmware)
Electrode material :
Initial state :
Electrolyte :
Comments :
Cable : special
Reference electrode : SCE Saturated Calomel Electrode (0.241 V)
Electrode surface area : 0.001 cm²
Characteristic mass : 0.001 g
Equivalent Weight : 0.000 g/eq.
Density : 0.000 g/cm3
Volume (V) : 0.001 cm³
Record EIS quality indicators
Cycle Definition : Charge/Discharge alternance
tR (h:m:s)          0:01:0.0000
dER/dt (mV/h)       1.0
record              <Ewe>
dER (mV)            0.00
dtR (s)             0.5000
E range min (V)     -1.000
E range max (V)     1.000

mode	error	time/s	<Ewe/V>
3	0	958.928	0.460941
3	0	959.428	0.460066
3	0	959.928	0.459918
3	0	960.428	0.459869
3	0	960.928	0.459847
3	0	961.428	0.459839
3	0	961.928	0.459835
3	0	962.428	0.459832
3	0	962.928	0.459829
3	0	963.428	0.459822
3	0	963.928	0.45982
3	0	964.428	0.459819
3	0	964.928	0.459817
3	0	965.428	0.459816
3	0	965.928	0.459816
3	0	966.428	0.459813
3	0	966.928	0.459811
3	0	967.428	0.459813
3	0	967.928	0.459814
3	0	968.428	0.459817
3	0	968.928	0.45982
3	0	969.428	0.459819
3	0	969.928	0.459814
3	0	970.428	0.459812
3	0	970.928	0.459809
3	0	971.428	0.45981
3	0	971.928	0.459809
3	0	972.428	0.459808
3	0	972.928	0.459811
3	0	973.428	0.459809
3	0	973.928	0.459806
3	0	974.428	0.459805
3	0	974.928	0.459805
3	0	975.428	0.459808
3	0	975.928	0.459807
3	0	976.428	0.459806
3	0	976.928	0.459807
3	0	977.428	0.459807
3	0	977.928	0.459799
3	0	978.428	0.459799
3	0	978.928	0.4598
3	0	979.428	0.4598
3	0	979.928	0.459801
3	0	980.428	0.459799
3	0	980.928	0.459797
3	0	981.428	0.459796
3	0	981.928	0.459797
3	0	982.428	0.459795
3	0	982.928	0.459796
3	0	983.428	0.459794
3	0	983.928	0.459794
3	0	984.428	0.459796
3	0	984.928	0.459796
3	0	985.428	0.4598
3	0	985.928	0.459795
3	0	986.428	0.459796
3	0	986.928	0.459795
3	0	987.428	0.459795
3	0	987.928	0.459794
3	0	988.428	0.459795
3	0	988.928	0.459791
3	0	989.428	0.459791
3	0	989.928	0.459797
3	0	990.428	0.459796
3	0	990.928	0.459795
3	0	991.428	0.459794
3	0	991.928	0.459791
3	0	992.428	0.459793
3	0	992.928	0.45979
3	0	993.428	0.459799
3	0	993.928	0.459798
3	0	994.428	0.459798
3	0	994.928	0.4598
3	0	995.428	0.4598
3	0	995.928	0.459799
3	0	996.428	0.459799
3	0	996.928	0.4598
3	0	997.428	0.459797
3	0	997.928	0.459796
3	0	998.428	0.459802
3	0	998.928	0.459803
3	0	999.428	0.4598
3	0	999.928	0.459798
3	0	1000.43	0.459798
3	0	1000.93	0.459793
3	0	1001.43	0.459794
3	0	1001.93	0.459795
3	0	1002.43	0.459796
3	0	1002.93	0.459795
3	0	1003.43	0.459795
3	0	1003.93	0.459796
3	0	1004.43	0.459798
3	0	1004.93	0.4598
3	0	1005.43	0.459803
3	0	1005.93	0.459805
3	0	1006.43	0.459809
3	0	1006.93	0.459811
3	0	1007.43	0.459811
3	0	1007.93	0.459807
3	0	1008.43	0.459806
3	0	1008.93	0.459807
3	0	1009.43	0.459805
3	0	1009.93	0.459805
3	0	1010.43	0.4598
3	0	1010.93	0.4598
3	0	1011.43	0.459799
3	0	1011.93	0.459799
3	0	1012.43	0.459801
3	0	1012.93	0.459802
3	0	1013.43	0.459801
3	0	1013.93	0.459802
3	0	1014.43	0.459803
3	0	1014.93	0.4598
3	0	1015.43	0.459794
3	0	1015.93	0.459797
3	0	1016.43	0.459802
3	0	1016.93	0.459804
3	0	1017.43	0.459801
3	0	1017.93	0.459795
3	0	1018.43	0.459795
3	0	1018.59	0.459795

File: 240223-OCV-EIS-Fe2Fe3_5mM-HCl1M-1225RPM-Ag_AgCl_BLF8-GC-RDE-1minRestVSEoc-3ppf-14p1mVAmplitude_06_PEIS_C15.mpt
EC-Lab ASCII FILE
Nb header lines : 67

Potentio Electrochemical Impedance Spectroscopy

Run on channel : 15 (SN 19485)
User :
Electrode connection : standard
Potential control : Ewe
Ewe ctrl range : min = -1.00 V, max = 1.00 V
Ewe,I filtering : 50 kHz
Safety Limits :
	Do not start on E overload
Channel : Floating
Acquisition started on : 02/23/2024 14:49:54.683
Loaded Setting File :  NONE
Saved on :
	File : 240223-OCV-EIS-Fe2Fe3_5mM-HCl1M-1225RPM-Ag_AgCl_BLF8-GC-RDE-1minRestVSEoc-3ppf-14p1mVAmplitude_06_PEIS_C15.mpr
	Directory : C:\Data\mathias\RDE-RPM-variation\
	Host : 192.168.0.1
Device : VMP-300 (SN 0826)
Address : USB
EC-Lab for windows v11.52 (software)
Internet server v11.52 (firmware)
Command interpretor v11.52 (firmware)
Electrode material :
Initial state :
Electrolyte :
Comments :
Cable : special
Reference electrode : SCE Saturated Calomel Electrode (0.241 V)
Electrode surface area : 0.001 cm²
Characteristic mass : 0.001 g
Equivalent Weight : 0.000 g/eq.
Density : 0.000 g/cm3
Volume (V) : 0.001 cm³
Record EIS quality indicators
Cycle Definition : Charge/Discharge alternance
Mode                Single sine
E (V)               0.0000
vs.                 Eoc
tE (h:m:s)          0:01:0.0000
record              0
dI                  0.000
unit dI             mA
dt (s)              0.000
fi                  1.000
unit fi             MHz
ff                  100.000
unit ff             mHz
Nd                  10
Points              per decade
spacing             Logarithmic
Va (mV)             14.1
pw                  0.10
Na                  3
corr                0
E range min (V)     -1.000
E range max (V)     1.000
I Range             Auto
Bandwidth           8
nc cycles           0
goto Ns'            0
nr cycles           0
inc. cycle          1

freq/Hz	Re(Z)/Ohm	-Im(Z)/Ohm	|Z|/Ohm	Phase(Z)/deg	time/s	<Ewe>/V	<I>/mA	Cs/µF	Cp/µF	cycle number	I Range	|Ewe|/V	|I|/A	Ns	(Q-Qo)/mA.h	THD Ewe/%	NSD Ewe/%	NSR Ewe/%	|Ewe h2|/V	|Ewe h3|/V	|Ewe h4|/V	|Ewe h5|/V	|Ewe h6|/V	|Ewe h7|/V	THD I/%	NSD I/%	NSR I/%	|I h2|/A	|I h3|/A	|I h4|/A	|I h5|/A	|I h6|/A	|I h7|/A	Re(Y)/Ohm-1	Im(Y)/Ohm-1	|Y|/Ohm-1	Phase(Y)/deg	Re(C)/nF	Im(C)/nF	|C|/nF	Phase(C)/deg	Re(M)	Im(M)	|M|	Phase(M)/deg	Re(Permittivity)	Im(Permittivity)	|Permittivity|	Phase(Permittivity)/deg	Re(Resistivity)/Ohm.cm	Im(Resistivity)/Ohm.cm	|Resistivity|/Ohm.cm	Phase(Resistivity)/deg	Re(Conductivity)/mS/cm	Im(Conductivity)/mS/cm	|Conductivity|/mS/cm	Phase(Conductivity)/deg	Tan(Delta)	Loss Angle(Delta)/deg	dq/mA.h
1.00002e+06	3.55447	4.06805	5.40215	-48.8546	1081.78	0.459637	-0.01171	0.0391224	0.0221852	1	38	0.0111452	0.00206311	0	-8.65597e-06	-1	-1	-1	0	0	0	0	0	0	-1	-1	-1	0	0	0	0	0	0	0.121798	0.139397	0.185111	48.8546	22.1852	19.3844	29.4608	-41.1454	0.0000000E+000	0.0000000E+000	0.0000000E+000	41.1454	0.0000000E+000	0.0000000E+000	0.0000000E+000	-41.1454	0.0000000E+000	0.0000000E+000	0.0000000E+000	-48.8546	0.0000000E+000	0.0000000E+000	0.0000000E+000	48.8546	0.873753	41.1454	-8.65597e-06
316230	3.4576	1.3424	3.70905	-21.2186	1087.38	0.459629	-0.00307238	0.374916	0.0491107	1	38	0.0145833	0.00393181	0	4.64199e-07	-1	-1	-1	0	0	0	0	0	0	-1	-1	-1	0	0	0	0	0	0	0.251333	0.0975796	0.269611	21.2186	49.1107	126.493	135.692	-68.7814	0.0000000E+000	0.0000000E+000	0.0000000E+000	68.7814	0.0000000E+000	0.0000000E+000	0.0000000E+000	-68.7814	0.0000000E+000	0.0000000E+000	0.0000000E+000	-21.2186	0.0000000E+000	0.0000000E+000	0.0000000E+000	21.2186	2.57567	68.7814	5.97995e-06
100004	3.42989	1.051	3.5873	-17.0364	1093.11	0.459622	-0.00186212	1.51426	0.129979	1	38	0.0145652	0.00406021	0	-9.87908e-06	0.44284	0.264056	8.51706	4.2171e-05	2.35791e-05	1.23784e-05	2.01983e-05	2.09766e-05	2.51536e-05	0.0837334	0.0296865	0.702243	2.24296e-06	1.65261e-06	1.0407e-06	9.20602e-07	5.49166e-07	1.01951e-06	0.266529	0.081671	0.278761	17.0364	129.979	424.178	443.645	-72.9636	0.0000000E+000	0.0000000E+000	0.0000000E+000	72.9636	0.0000000E+000	0.0000000E+000	0.0000000E+000	-72.9636	0.0000000E+000	0.0000000E+000	0.0000000E+000	-17.0364	0.0000000E+000	0.0000000E+000	0.0000000E+000	17.0364	3.26344	72.9636	-9.0741e-06
31621.1	3.61826	2.13369	4.20053	-30.5279	1098.85	0.459617	-0.00223638	2.35891	0.608647	1	38	0.014672	0.00349288	0	-9.36266e-07	0.502998	0.273488	8.9609	2.56461e-05	3.32591e-05	2.04726e-05	1.7998e-05	3.95146e-05	3.05131e-05	0.0540221	0.057195	0.838762	4.63319e-07	1.10961e-06	9.11809e-07	6.99246e-07	5.34542e-07	3.50899e-07	0.205065	0.120927	0.238065	30.5279	608.647	1032.13	1198.22	-59.4721	0.0000000E+000	0.0000000E+000	0.0000000E+000	59.4721	0.0000000E+000	0.0000000E+000	0.0000000E+000	-59.4721	0.0000000E+000	0.0000000E+000	0.0000000E+000	-30.5279	0.0000000E+000	0.0000000E+000	0.0000000E+000	30.5279	1.69578	59.4721	-1.35381e-06
10002.2	4.22331	5.7907	7.16719	-53.8958	1104.58	0.459619	-0.00224016	2.74785	1.79373	1	38	0.0145469	0.00202965	0	-1.35105e-05	0.627724	0.282866	8.64465	6.40361e-05	2.74944e-05	2.88176e-05	2.19178e-05	3.01397e-05	2.40247e-05	0.218059	0.0549293	1.44553	4.08311e-06	7.85401e-07	6.79592e-07	1.02099e-06	6.33619e-07	2.78534e-07	0.0822158	0.112729	0.139525	53.8958	1793.73	1308.21	2220.11	-36.1042	0.0000000E+000	0.0000000E+000	0.0000000E+000	36.1042	0.0000000E+000	0.0000000E+000	0.0000000E+000	-36.1042	0.0000000E+000	0.0000000E+000	0.0000000E+000	-53.8958	0.0000000E+000	0.0000000E+000	0.0000000E+000	53.8958	0.729326	36.1042	-2.70286e-06
3163.04	6.35718	16.1174	17.3258	-68.4743	1110.36	0.459513	-0.00377629	3.12191	2.70161	1	38	0.0138377	0.000798675	0	-1.9279e-05	0.492463	0.320318	9.25886	1.93182e-05	2.44701e-05	3.33585e-05	1.84859e-05	1.81644e-05	3.24732e-05	0.809758	0.168182	3.64565	5.89796e-06	2.15452e-06	6.11188e-07	8.01945e-07	6.25344e-07	7.61445e-07	0.0211776	0.0536917	0.0577173	68.4743	2701.61	1065.59	2904.17	-21.5257	0.0000000E+000	0.0000000E+000	0.0000000E+000	21.5257	0.0000000E+000	0.0000000E+000	0.0000000E+000	-21.5257	0.0000000E+000	0.0000000E+000	0.0000000E+000	-68.4743	0.0000000E+000	0.0000000E+000	0.0000000E+000	68.4743	0.39443	21.5258	-1.05768e-06
999.682	13.5525	43.5005	45.5627	-72.6956	1116.15	0.459484	-0.000340911	3.65986	3.33605	1	39	0.0139099	0.00030529	0	-2.35008e-05	0.420626	0.276456	9.03196	1.84025e-05	3.20368e-05	1.36513e-05	2.62805e-05	1.88209e-05	2.21689e-05	1.18256	0.159666	4.39244	2.80214e-06	2.08493e-06	1.95819e-07	7.74166e-07	1.6296e-07	3.57358e-07	0.00652831	0.0209544	0.0219478	72.6956	3336.05	1039.34	3494.21	-17.3044	0.0000000E+000	0.0000000E+000	0.0000000E+000	17.3044	0.0000000E+000	0.0000000E+000	0.0000000E+000	-17.3044	0.0000000E+000	0.0000000E+000	0.0000000E+000	-72.6956	0.0000000E+000	0.0000000E+000	0.0000000E+000	72.6956	0.311549	17.3044	-3.3892e-07
316.316	36.2056	112.941	118.602	-72.2256	1121.67	0.45954	-0.000105519	4.45501	4.03985	1	39	0.0128452	0.000108305	0	-2.36955e-05	0.491456	0.239007	9.59202	1.74067e-05	2.72504e-05	3.55281e-05	1.77456e-05	1.61028e-05	2.54241e-05	1.09713	0.245814	11.7266	8.78754e-07	4.8626e-07	4.18524e-07	2.99841e-07	2.2228e-07	2.05745e-07	0.0025739	0.00802909	0.00843156	72.2256	4039.85	1295.06	4242.36	-17.7744	0.0000000E+000	0.0000000E+000	0.0000000E+000	17.7744	0.0000000E+000	0.0000000E+000	0.0000000E+000	-17.7744	0.0000000E+000	0.0000000E+000	0.0000000E+000	-72.2256	0.0000000E+000	0.0000000E+000	0.0000000E+000	72.2256	0.320572	17.7744	-1.33426e-07
[...]
9.99682	1006.51	1289.9	1636.13	-52.0352	1138.69	0.459532	-7.18424e-05	12.3424	7.67152	1	41	0.0140974	8.61633e-06	0	-2.39624e-05	0.895901	0.574042	18.2359	5.97817e-05	3.75667e-05	6.21355e-05	5.44861e-05	2.52688e-05	4.05552e-05	0.952225	0.159267	5.92191	6.75316e-08	3.71627e-08	9.84789e-09	2.31275e-08	4.92502e-09	8.88039e-09	0.000375996	0.000481862	0.000611199	52.0352	7671.52	5986.07	9730.63	-37.9648	0.0000000E+000	0.0000000E+000	0.0000000E+000	37.9648	0.0000000E+000	0.0000000E+000	0.0000000E+000	-37.9648	0.0000000E+000	0.0000000E+000	0.0000000E+000	-52.0352	0.0000000E+000	0.0000000E+000	0.0000000E+000	52.0352	0.780298	37.9648	-6.11988e-08
3.16296	2431.85	1628.59	2926.81	-33.8098	1147.13	0.459531	-7.21046e-05	30.8969	9.56642	1	41	0.0141015	4.81805e-06	0	-2.41378e-05	0.451492	0.293971	7.8538	2.06306e-05	2.07974e-05	2.75276e-05	2.80571e-05	2.16094e-05	2.79696e-05	0.86846	0.141587	4.82995	3.54854e-08	1.76022e-08	5.02703e-09	9.12062e-09	4.72562e-09	4.09779e-09	0.000283889	0.000190118	0.000341669	33.8098	9566.42	14284.8	17192.2	-56.1902	0.0000000E+000	0.0000000E+000	0.0000000E+000	56.1902	0.0000000E+000	0.0000000E+000	0.0000000E+000	-56.1902	0.0000000E+000	0.0000000E+000	0.0000000E+000	-33.8098	0.0000000E+000	0.0000000E+000	0.0000000E+000	33.8098	1.49323	56.1902	-1.18996e-08
1.00006	3674.4	1126.22	3843.12	-17.0405	1170.88	0.459544	-7.94898e-05	141.309	12.1352	1	42	0.0140871	3.66553e-06	0	-2.46697e-05	0.252089	0.155452	4.34245	9.39531e-06	1.14871e-05	7.69466e-06	1.32685e-05	1.75309e-05	1.80442e-05	0.835839	0.0611013	1.34809	2.7433e-08	1.30005e-08	6.28399e-10	4.00975e-09	3.27893e-10	4.72533e-10	0.000248782	7.62525e-05	0.000260205	17.0405	12135.2	39592.4	41410.4	-72.9595	0.0000000E+000	0.0000000E+000	0.0000000E+000	72.9595	0.0000000E+000	0.0000000E+000	0.0000000E+000	-72.9595	0.0000000E+000	0.0000000E+000	0.0000000E+000	-17.0405	0.0000000E+000	0.0000000E+000	0.0000000E+000	17.0405	3.2626	72.9595	-2.93946e-07
0.316193	4234.4	582.374	4274.26	-7.831	1236.67	0.459523	-8.90124e-05	864.302	16.0453	1	42	0.0140869	3.29576e-06	0	-2.62445e-05	0.16957	0.0911235	2.41571	1.1198e-05	1.23797e-05	5.74096e-06	1.23354e-05	3.02047e-06	6.18879e-06	0.84168	0.0329219	1.51284	2.52755e-08	1.10176e-08	2.39624e-10	3.00118e-09	2.54438e-10	2.85167e-10	0.000231777	3.18773e-05	0.000233959	7.831	16045.3	116664	117763	-82.169	0.0000000E+000	0.0000000E+000	0.0000000E+000	82.169	0.0000000E+000	0.0000000E+000	0.0000000E+000	-82.169	0.0000000E+000	0.0000000E+000	0.0000000E+000	-7.831	0.0000000E+000	0.0000000E+000	0.0000000E+000	7.831	7.27092	82.169	-1.96492e-07
0.0999518	4461.8	258.597	4469.29	-3.31703	1441.26	0.45952	-8.63244e-05	6157.53	20.6146	1	42	0.014085	3.15151e-06	0	-3.23416e-05	0.117174	0.0414315	1.37717	6.33752e-06	7.21539e-06	2.76209e-06	1.0049e-05	5.28605e-06	4.50217e-06	0.875255	0.0275151	1.50824	2.5489e-08	1.01846e-08	2.29338e-10	2.67117e-09	3.45449e-10	2.26418e-10	0.000223374	1.29463e-05	0.000223749	3.31703	20614.6	355683	356280	-86.683	0.0000000E+000	0.0000000E+000	0.0000000E+000	86.683	0.0000000E+000	0.0000000E+000	0.0000000E+000	-86.683	0.0000000E+000	0.0000000E+000	0.0000000E+000	-3.31703	0.0000000E+000	0.0000000E+000	0.0000000E+000	3.31703	17.2539	86.683	-1.96832e-06

File: 240223-OCV-EIS-Fe2Fe3_5mM-HCl1M-1225RPM-Ag_AgCl_BLF8-GC-RDE-1minRestVSEoc-3ppf-14p1mVAmplitude_07_OCV_C15.mpt
EC-Lab ASCII FILE
Nb header lines : 47

Open Circuit Voltage

Run on channel : 15 (SN 19485)
User :
Electrode connection : standard
Potential control : Ewe
Ewe ctrl range : min = -1.00 V, max = 1.00 V
Ewe,I filtering : 50 kHz
Safety Limits :
	Do not start on E overload
Channel : Floating
Acquisition started on : 02/23/2024 14:49:54.683
Loaded Setting File :  NONE
Saved on :
	File : 240223-OCV-EIS-Fe2Fe3_5mM-HCl1M-1225RPM-Ag_AgCl_BLF8-GC-RDE-1minRestVSEoc-3ppf-14p1mVAmplitude_07_OCV_C15.mpr
	Directory : C:\Data\mathias\RDE-RPM-variation\
	Host : 192.168.0.1
Device : VMP-300 (SN 0826)
Address : USB
EC-Lab for windows v11.52 (software)
Internet server v11.52 (firmware)
Command interpretor v11.52 (firmware)
Electrode material :
Initial state :
Electrolyte :
Comments :
Cable : special
Reference electrode : SCE Saturated Calomel Electrode (0.241 V)
Electrode surface area : 0.001 cm²
Characteristic mass : 0.001 g
Equivalent Weight : 0.000 g/eq.
Density : 0.000 g/cm3
Volume (V) : 0.001 cm³
Record EIS quality indicators
Cycle Definition : Charge/Discharge alternance
tR (h:m:s)          0:01:0.0000
dER/dt (mV/h)       1.0
record              <Ewe>
dER (mV)            0.00
dtR (s)             0.5000
E range min (V)     -1.000
E range max (V)     1.000

mode	error	time/s	<Ewe/V>
3	0	1441.76	0.459328
3	0	1442.26	0.459581
3	0	1442.76	0.459667
3	0	1443.26	0.459702
3	0	1443.76	0.459725
3	0	1444.26	0.45974
3	0	1444.76	0.459746
3	0	1445.26	0.459754
3	0	1445.76	0.459761
3	0	1446.26	0.459765
3	0	1446.76	0.459768
3	0	1447.26	0.459772
3	0	1447.76	0.459771
3	0	1448.26	0.459774
3	0	1448.76	0.459775
3	0	1449.26	0.459775
3	0	1449.76	0.459775
3	0	1450.26	0.459778
3	0	1450.76	0.459776
3	0	1451.26	0.459775
3	0	1451.76	0.459776
3	0	1452.26	0.459778
3	0	1452.76	0.459777
3	0	1453.26	0.459775
3	0	1453.76	0.459779
3	0	1454.26	0.459779
3	0	1454.76	0.459779
3	0	1455.26	0.459778
3	0	1455.76	0.459779
3	0	1456.26	0.45978
3	0	1456.76	0.459779
3	0	1457.26	0.459781
3	0	1457.76	0.45978
3	0	1458.26	0.45978
3	0	1458.76	0.45978
3	0	1459.26	0.459782
3	0	1459.76	0.459784
3	0	1460.26	0.459784
3	0	1460.76	0.459782
3	0	1461.26	0.459781
3	0	1461.76	0.459779
3	0	1462.26	0.459781
3	0	1462.76	0.45978
3	0	1463.26	0.459779
3	0	1463.76	0.459778
3	0	1464.26	0.459782
3	0	1464.76	0.459784
3	0	1465.26	0.459784
3	0	1465.76	0.459783
3	0	1466.26	0.459782
3	0	1466.76	0.459779
3	0	1467.26	0.459779
3	0	1467.76	0.459783
3	0	1468.26	0.459783
3	0	1468.76	0.459783
3	0	1469.26	0.459784
3	0	1469.76	0.459786
3	0	1470.26	0.459785
3	0	1470.76	0.459781
3	0	1471.26	0.459782
3	0	1471.76	0.459781
3	0	1472.26	0.459782
3	0	1472.76	0.45978
3	0	1473.26	0.459782
3	0	1473.76	0.459784
3	0	1474.26	0.459789
3	0	1474.76	0.459789
3	0	1475.26	0.459787
3	0	1475.76	0.459786
3	0	1476.26	0.459787
3	0	1476.76	0.459787
3	0	1477.26	0.459788
3	0	1477.76	0.459786
3	0	1478.26	0.459787
3	0	1478.76	0.459785
3	0	1479.26	0.459785
3	0	1479.76	0.459781
3	0	1480.26	0.459783
3	0	1480.76	0.459783
3	0	1481.26	0.459785
3	0	1481.76	0.459788
3	0	1482.26	0.45979
3	0	1482.76	0.459791
3	0	1483.26	0.459787
3	0	1483.76	0.459788
3	0	1484.26	0.459785
3	0	1484.76	0.459784
3	0	1485.26	0.459785
3	0	1485.76	0.459787
3	0	1486.26	0.459786
3	0	1486.76	0.459785
3	0	1487.26	0.459786
3	0	1487.76	0.459786
3	0	1488.26	0.459786
3	0	1488.76	0.459786
3	0	1489.26	0.459787
3	0	1489.76	0.459786
3	0	1490.26	0.459787
3	0	1490.76	0.459788
3	0	1491.26	0.459787
3	0	1491.76	0.459787
3	0	1492.26	0.459785
3	0	1492.76	0.459787
3	0	1493.26	0.459786
3	0	1493.76	0.459787
3	0	1494.26	0.459786
3	0	1494.76	0.459783
3	0	1495.26	0.459781
3	0	1495.76	0.459781
3	0	1496.26	0.459782
3	0	1496.76	0.459782
3	0	1497.26	0.459784
3	0	1497.76	0.459784
3	0	1498.26	0.459787
3	0	1498.76	0.459788
3	0	1499.26	0.459798
3	0	1499.76	0.459798
3	0	1500.26	0.459798
3	0	1500.76	0.459792
3	0	1501.26	0.459785
3	0	1501.41	0.459784

File: 240223-OCV-EIS-Fe2Fe3_5mM-HCl1M-2000RPM-Ag_AgCl_BLF8-GC-RDE-1minRest-3ppf-14p1mVAmplitude_01_OCV_C15.mpt
EC-Lab ASCII FILE
Nb header lines : 47

Open Circuit Voltage

Run on channel : 15 (SN 19485)
User :
Electrode connection : standard
Potential control : Ewe
Ewe ctrl range : min = -1.00 V, max = 1.00 V
Ewe,I filtering : 50 kHz
Safety Limits :
	Do not start on E overload
Channel : Floating
Acquisition started on : 02/23/2024 14:08:11.747
Loaded Setting File :  NONE
Saved on :
	File : 240223-OCV-EIS-Fe2Fe3_5mM-HCl1M-2000RPM-Ag_AgCl_BLF8-GC-RDE-1minRest-3ppf-14p1mVAmplitude_01_OCV_C15.mpr
	Directory : C:\Data\mathias\RDE-RPM-variation\
	Host : 192.168.0.1
Device : VMP-300 (SN 0826)
Address : USB
EC-Lab for windows v11.52 (software)
Internet server v11.52 (firmware)
Command interpretor v11.52 (firmware)
Electrode material :
Initial state :
Electrolyte :
Comments :
Cable : special
Reference electrode : SCE Saturated Calomel Electrode (0.241 V)
Electrode surface area : 0.001 cm²
Characteristic mass : 0.001 g
Equivalent Weight : 0.000 g/eq.
Density : 0.000 g/cm3
Volume (V) : 0.001 cm³
Record EIS quality indicators
Cycle Definition : Charge/Discharge alternance
tR (h:m:s)          0:01:0.0000
dER/dt (mV/h)       1.0
record              <Ewe>
dER (mV)            0.00
dtR (s)             0.5000
E range min (V)     -1.000
E range max (V)     1.000

mode	error	time/s	<Ewe/V>
3	0	0.5	0.459745
3	0	1	0.459746
3	0	1.5	0.459746
3	0	2	0.459748
3	0	2.5	0.459758
3	0	3	0.459762
3	0	3.5	0.459763
3	0	4	0.459761
3	0	4.5	0.459761
3	0	5	0.459762
3	0	5.5	0.459762
3	0	6	0.459761
3	0	6.5	0.45976
3	0	7	0.459761
3	0	7.5	0.459759
3	0	8	0.459757
3	0	8.5	0.459758
3	0	9	0.459755
3	0	9.5	0.459755
3	0	10	0.459755
3	0	10.5	0.459754
3	0	11	0.459755
3	0	11.5	0.459757
3	0	12	0.459757
3	0	12.5	0.459758
3	0	13	0.459757
3	0	13.5	0.459758
3	0	14	0.459758
3	0	14.5	0.459758
3	0	15	0.459755
3	0	15.5	0.459755
3	0	16	0.459756
3	0	16.5	0.459762
3	0	17	0.459761
3	0	17.5	0.459759
3	0	18	0.459758
3	0	18.5	0.459755
3	0	19	0.459757
3	0	19.5	0.459761
3	0	20	0.459747
3	0	20.5	0.459741
3	0	21	0.459741
3	0	21.5	0.459744
3	0	22	0.459742
3	0	22.5	0.459741
3	0	23	0.459741
3	0	23.5	0.459744
3	0	24	0.459744
3	0	24.5	0.459741
3	0	25	0.459737
3	0	25.5	0.459736
3	0	26	0.459736
3	0	26.5	0.459735
3	0	27	0.459734
3	0	27.5	0.459734
3	0	28	0.459736
3	0	28.5	0.459736
3	0	29	0.459736
3	0	29.5	0.459739
3	0	30	0.459737
3	0	30.5	0.459739
3	0	31	0.459735
3	0	31.5	0.45974
3	0	32	0.459738
3	0	32.5	0.459738
3	0	33	0.459737
3	0	33.5	0.459737
3	0	34	0.459739
3	0	34.5	0.459739
3	0	35	0.459738
3	0	35.5	0.459738
3	0	36	0.459735
3	0	36.5	0.459736
3	0	37	0.459735
3	0	37.5	0.459736
3	0	38	0.459739
3	0	38.5	0.459742
3	0	39	0.459746
3	0	39.5	0.459744
3	0	40	0.459744
3	0	40.5	0.459743
3	0	41	0.459745
3	0	41.5	0.459747
3	0	42	0.459743
3	0	42.5	0.459744
3	0	43	0.459746
3	0	43.5	0.459747
3	0	44	0.459748
3	0	44.5	0.459747
3	0	45	0.459745
3	0	45.5	0.459745
3	0	46	0.459745
3	0	46.5	0.459745
3	0	47	0.459743
3	0	47.5	0.459746
3	0	48	0.459749
3	0	48.5	0.459749
3	0	49	0.45975
3	0	49.5	0.459747
3	0	50	0.459747
3	0	50.5	0.459746
3	0	51	0.459747
3	0	51.5	0.459748
3	0	52	0.459745
3	0	52.5	0.459746
3	0	53	0.459747
3	0	53.5	0.459748
3	0	54	0.459749
3	0	54.5	0.459751
3	0	55	0.459748
3	0	55.5	0.459748
3	0	56	0.459748
3	0	56.5	0.459747
3	0	56.5764	0.459747