Folder: Thesis/Python/Data/RDE (part 4)

File: 240219-CV-EIS-Fe2Fe3_5mM-HCl1M-1225RPM-Ag_AgCl_BLF8-GC-RDE_01_CV_C15.mpt
EC-Lab ASCII FILE
Nb header lines : 60

Cyclic Voltammetry

Run on channel : 15 (SN 19485)
User :
Electrode connection : standard
Potential control : Ewe
Ewe ctrl range : min = -1.00 V, max = 1.00 V
Ewe,I filtering : <None>
Safety Limits :
	Do not start on E overload
Channel : Floating
Acquisition started on : 02/19/2024 16:52:12.543
Loaded Setting File :  C:\Data\mathias\RDE-RPM-variation\240219-CV-EIS-Fe2Fe3_5mM-HCl1M-RPMtest-Ag_AgCl_BLF8-GC-RDE.mps
Saved on :
	File : 240219-CV-EIS-Fe2Fe3_5mM-HCl1M-1225RPM-Ag_AgCl_BLF8-GC-RDE_01_CV_C15.mpr
	Directory : C:\Data\mathias\RDE-RPM-variation\
	Host : 192.168.0.1
Device : VMP-300 (SN 0826)
Address : USB
EC-Lab for windows v11.52 (software)
Internet server v11.52 (firmware)
Command interpretor v11.52 (firmware)
Electrode material :
Initial state :
Electrolyte :
Comments :
Cable : special
Electrode surface area : 0.001 cm²
Characteristic mass : 0.001 g
Equivalent Weight : 0.000 g/eq.
Density : 0.000 g/cm3
Volume (V) : 0.001 cm³
Record EIS quality indicators
Cycle Definition : Charge/Discharge alternance
Ei (V)              0.000
vs.                 Eoc
dE/dt               20.000
dE/dt unit          mV/s
E1 (V)              1.000
vs.                 Ref
Step percent        50
N                   10
E range min (V)     -1.000
E range max (V)     1.000
I Range             Auto
I Range min         Unset
I Range max         Unset
I Range init        Unset
Bandwidth           8
E2 (V)              0.000
vs.                 Ref
nc cycles           2
Reverse Scan        1
Ef (V)              0.000
vs.                 Eoc

mode	ox/red	error	control changes	counter inc.	time/s	control/V	Ewe/V	<I>/mA	cycle number	(Q-Qo)/C	I Range	step time/s	P/W
2	1	0	0	0	0.000000000000000E+000	0.46309	0.462802	0.000378472	1	0.0000000E+000	43	0.000000000000000E+000	1.75158e-07
2	1	0	1	0	2.4676	0.512441	0.512208	0.0106928	1	1.32136e-05	42	2.4538	5.47694e-06
2	1	0	1	0	4.9465	0.562017	0.561632	0.0271597	1	5.82407e-05	41	4.9327	1.52538e-05
2	1	0	1	0	7.3953	0.610994	0.61087	0.0569961	1	0.000158161	41	7.3815	3.48172e-05
2	1	0	1	0	9.8441	0.659971	0.659603	0.104017	1	0.000352404	41	9.8303	6.86098e-05
2	1	0	1	0	12.323	0.709547	0.709232	0.163973	1	0.00068321	40	12.3092	0.000116295
2	1	0	1	0	14.7718	0.758524	0.758413	0.228212	1	0.00116392	40	14.758	0.000173079
2	1	0	1	0	17.2206	0.807501	0.806989	0.291489	1	0.00180416	40	17.2068	0.000235228
2	1	0	1	0	19.6695	0.856477	0.856266	0.342617	1	0.00258655	40	19.6557	0.000293371
2	1	0	1	0	22.1183	0.905454	0.905275	0.381344	1	0.00347801	40	22.1045	0.000345221
2	1	0	1	0	24.5671	0.954431	0.954124	0.408833	1	0.00444683	40	24.5533	0.000390077
2	1	0	1	0	26.9842	0.99721	0.997086	0.422465	1	0.00545644	40	26.9704	0.000421234
2	1	0	1	0	29.433	0.948234	0.947767	0.401821	1	0.0064615	40	29.4192	0.000380832
2	1	0	1	0	31.8818	0.899257	0.898809	0.370288	1	0.00740931	40	31.868	0.000332818
2	1	0	1	0	34.3307	0.85028	0.849982	0.328264	1	0.00826798	40	34.3169	0.000279018
2	1	0	1	0	36.7795	0.801304	0.801059	0.272099	1	0.0090041	40	36.7657	0.000217968
2	1	0	1	0	39.2284	0.752326	0.751979	0.205868	1	0.00958997	40	39.2146	0.000154808
2	1	0	1	0	41.6772	0.70335	0.703063	0.143564	1	0.0100174	40	41.6634	0.000100934
2	1	0	1	0	44.126	0.654373	0.653998	0.0894035	1	0.0103002	40	44.1122	5.84697e-05
2	1	0	1	0	46.5749	0.605397	0.605256	0.0477443	1	0.0104645	40	46.5611	2.88975e-05
2	1	0	1	0	49.0537	0.55582	0.555435	0.0220362	1	0.0105476	41	49.0399	1.22397e-05
2	1	0	1	0	51.5025	0.506844	0.506656	0.00781751	1	0.0105823	41	51.4887	3.96079e-06
2	0	0	1	0	54.0413	0.456068	0.455899	-0.00215146	1	0.010589	42	0.5547	-9.8085e-07
2	0	0	1	0	56.5201	0.406491	0.406165	-0.0129436	1	0.0105711	41	3.0335	-5.25725e-06
2	0	0	1	0	58.969	0.357515	0.357286	-0.0316325	1	0.0105189	41	5.4824	-1.13018e-05
2	0	0	1	0	61.4178	0.308538	0.308373	-0.0664725	1	0.0104028	41	7.9312	-2.04983e-05
2	0	0	1	0	63.8966	0.258962	0.25855	-0.123919	1	0.010171	40	10.41	-3.20392e-05
2	0	0	1	0	66.3455	0.209985	0.209708	-0.196917	1	0.00977922	40	12.8589	-4.1295e-05
2	0	0	1	0	68.7943	0.161008	0.160833	-0.268785	1	0.00920722	40	15.3077	-4.32295e-05
2	0	0	1	0	71.2431	0.112031	0.111802	-0.321673	1	0.00847921	40	17.7565	-3.59637e-05
2	0	0	1	0	73.692	0.0630547	0.0629716	-0.361187	1	0.0076387	40	20.2054	-2.27445e-05
2	0	0	1	0	76.1408	0.014078	0.0138114	-0.380798	1	0.00672593	40	22.6542	-5.25936e-06
2	0	0	1	1	78.5578	0.0342684	0.0339173	-0.373505	1	0.00580257	40	25.0712	-1.26683e-05
2	0	0	1	1	81.0066	0.0832442	0.0830525	-0.341146	1	0.00492519	40	27.52	-2.8333e-05
2	0	0	1	1	83.4555	0.132222	0.13188	-0.297548	1	0.00413892	40	29.9689	-3.92406e-05
2	0	0	1	1	85.9043	0.181198	0.180663	-0.235915	1	0.00348266	40	32.4177	-4.2621e-05
2	0	0	1	1	88.3532	0.230175	0.229744	-0.16378	1	0.00299308	40	34.8666	-3.76275e-05
2	0	0	1	1	90.802	0.279152	0.278938	-0.0969251	1	0.0026772	40	37.3154	-2.70361e-05
2	0	0	1	1	93.2508	0.328129	0.327818	-0.0495811	1	0.00250265	40	39.7642	-1.62536e-05
2	0	0	1	1	95.7296	0.377704	0.377147	-0.0214336	1	0.0024183	41	42.243	-8.08362e-06
2	0	0	1	1	98.1785	0.426682	0.426451	-0.00644274	1	0.00238605	41	44.6919	-2.74751e-06
2	1	0	1	1	100.687	0.476858	0.476779	0.00391325	2	0.00238328	42	0.9745	1.86576e-06
2	1	0	1	1	103.166	0.526434	0.526023	0.0156734	2	0.00240664	41	3.4533	8.24457e-06
2	1	0	1	1	105.615	0.575412	0.574975	0.0354924	2	0.00246708	41	5.9022	2.04072e-05
2	1	0	1	1	108.064	0.624388	0.624092	0.0703956	2	0.00259338	41	8.351	4.39333e-05
2	1	0	1	1	110.543	0.673964	0.673691	0.122497	2	0.00283016	40	10.8298	8.25248e-05
2	1	0	1	1	112.991	0.722941	0.722682	0.183438	2	0.00320442	40	13.2786	0.000132567
2	1	0	1	1	115.44	0.771918	0.771655	0.248661	2	0.00373456	40	15.7275	0.00019188
2	1	0	1	1	117.889	0.820894	0.820477	0.308077	2	0.00442052	40	18.1763	0.00025277
2	1	0	1	1	120.338	0.869872	0.869618	0.357235	2	0.00523923	40	20.6252	0.000310658
2	1	0	1	1	122.787	0.918848	0.91833	0.391013	2	0.00615646	40	23.074	0.000359079
2	1	0	1	1	125.236	0.967824	0.967603	0.414868	2	0.00714286	40	25.5228	0.000401427
2	1	0	1	1	127.658	0.983717	0.983446	0.418947	2	0.00816123	40	27.9449	0.000412012
2	1	0	1	1	130.106	0.93474	0.934355	0.394282	2	0.0091523	40	30.3937	0.000368399
2	1	0	1	1	132.555	0.885763	0.885502	0.360955	2	0.0100761	40	32.8425	0.000319627
2	1	0	1	1	135.004	0.836787	0.836456	0.314724	2	0.010906	40	35.2914	0.000263253
2	1	0	1	1	137.453	0.78781	0.787509	0.254072	2	0.0116047	40	37.7402	0.000200084
2	1	0	1	1	139.902	0.738833	0.738432	0.188762	2	0.012147	40	40.189	0.000139388
2	1	0	1	1	142.351	0.689857	0.689511	0.128007	2	0.0125323	40	42.6379	8.82624e-05
2	1	0	1	1	144.799	0.64088	0.640496	0.0766382	2	0.01278	40	45.0867	4.90865e-05
2	1	0	1	1	147.278	0.591303	0.591155	0.0390229	2	0.0129193	41	47.5655	2.30686e-05
2	1	0	1	1	149.727	0.542327	0.541932	0.0174175	2	0.0129854	41	50.0144	9.43911e-06
2	1	0	1	1	152.176	0.49335	0.493066	0.00501612	2	0.0130114	41	52.4632	2.47328e-06
2	0	0	1	1	154.715	0.442574	0.442249	-0.00476241	2	0.0130115	42	1.2144	-2.10617e-06
2	0	0	1	1	157.194	0.392998	0.392464	-0.0170247	2	0.0129857	41	3.6932	-6.68157e-06
2	0	0	1	1	159.642	0.344022	0.343841	-0.039453	2	0.0129193	41	6.142	-1.35656e-05
2	0	0	1	1	162.091	0.295044	0.294711	-0.0799936	2	0.0127772	41	8.5909	-2.3575e-05
2	0	0	1	1	164.57	0.245468	0.245249	-0.143515	2	0.012504	40	11.0697	-3.51969e-05
2	0	0	1	1	167.019	0.196491	0.196216	-0.217698	2	0.0120617	40	13.5185	-4.27158e-05
[...]
2	0	0	1	0	193.954	0.342222	0.341762	-0.0398079	2	0.00488971	41	40.4539	-1.36048e-05
2	0	0	1	0	196.403	0.391199	0.390911	-0.0164456	2	0.00482392	41	42.9027	-6.42878e-06
2	0	0	1	0	198.882	0.440776	0.440411	-0.00327768	2	0.00480094	42	45.3816	-1.44353e-06
2	1	0	1	0	201.356	0.490251	0.489712	0.00669745	3	0.00480511	42	1.6442	3.27982e-06
2	1	0	1	0	203.835	0.539828	0.539731	0.0199524	3	0.00483693	41	4.123	1.07689e-05
2	1	0	1	0	206.283	0.588805	0.588558	0.0432891	3	0.00491178	41	6.5718	2.54781e-05
2	1	0	1	0	208.732	0.637781	0.637254	0.0830751	3	0.00506305	41	9.0207	5.294e-05
2	1	0	1	0	211.211	0.687358	0.686987	0.138559	3	0.00533544	40	11.4995	9.51884e-05
2	1	0	1	0	213.66	0.736335	0.736083	0.20114	3	0.00575003	40	13.9483	0.000148056
2	1	0	1	0	216.109	0.785311	0.785291	0.265644	3	0.00632236	40	16.3972	0.000208608
2	1	0	1	0	218.558	0.834288	0.833991	0.32288	3	0.00704698	40	18.846	0.000269279
2	1	0	1	0	221.006	0.883265	0.882783	0.366713	3	0.00789434	40	21.2948	0.000323728
2	1	0	1	0	223.455	0.932241	0.932143	0.393931	3	0.00883156	40	23.7437	0.0003672
2	1	0	1	0	225.904	0.981218	0.980954	0.41933	3	0.00983084	40	26.1925	0.000411343
2	1	0	1	0	228.331	0.970223	0.969852	0.412101	3	0.010848	40	28.6195	0.000399677
2	1	0	1	0	230.78	0.921247	0.920921	0.388675	3	0.0118253	40	31.0684	0.000357939
2	1	0	1	0	233.229	0.87227	0.871983	0.348551	3	0.0127254	40	33.5172	0.000303931
2	1	0	1	0	235.678	0.823293	0.822951	0.29734	3	0.0135187	40	35.966	0.000244696
2	1	0	1	0	238.126	0.774316	0.774037	0.234906	3	0.0141733	40	38.4149	0.000181826
2	1	0	1	0	240.575	0.72534	0.725029	0.170712	3	0.0146694	40	40.8637	0.000123771
2	1	0	1	0	243.024	0.676362	0.676156	0.111832	3	0.015013	40	43.3126	7.56156e-05
2	1	0	1	0	245.473	0.627386	0.62702	0.0641504	3	0.0152257	40	45.7614	4.02236e-05
2	1	0	1	0	247.952	0.57781	0.577432	0.0315517	3	0.0153406	41	48.2402	1.8219e-05
2	1	0	1	0	250.401	0.528833	0.528482	0.0133023	3	0.015393	41	50.689	7.03003e-06
2	1	0	1	0	252.879	0.479257	0.478703	0.00214363	3	0.0154111	42	53.1679	1.02616e-06
2	0	0	1	0	255.388	0.429081	0.428633	-0.00755058	3	0.0154046	42	1.9041	-3.23643e-06
2	0	0	1	0	257.867	0.379504	0.379197	-0.0217997	3	0.0153699	41	4.3829	-8.26641e-06
2	0	0	1	0	260.316	0.330527	0.330472	-0.0483368	3	0.0152872	41	6.8317	-1.59739e-05
2	0	0	1	0	262.765	0.281551	0.28129	-0.094976	3	0.0151161	41	9.2806	-2.67158e-05
2	0	0	1	0	265.244	0.231974	0.231942	-0.163025	3	0.0147994	40	11.7594	-3.78124e-05
2	0	0	1	0	267.692	0.182998	0.182517	-0.238179	3	0.0143082	40	14.2082	-4.34717e-05
2	0	0	1	0	270.141	0.134021	0.133874	-0.298372	3	0.0136457	40	16.6571	-3.99442e-05
2	0	0	1	0	272.59	0.0850442	0.084492	-0.346424	3	0.0128494	40	19.1059	-2.92701e-05
2	0	0	1	0	275.039	0.0360675	0.0356955	-0.374091	3	0.0119627	40	21.5547	-1.33534e-05
2	0	0	1	1	277.456	0.0122788	0.0120218	-0.382365	3	0.0110376	40	23.9717	-4.5967e-06
2	0	0	1	1	279.905	0.0612555	0.0613252	-0.358125	3	0.0101287	40	26.4206	-2.1962e-05
2	0	0	1	1	282.354	0.110232	0.11016	-0.320137	3	0.00929454	40	28.8694	-3.52664e-05
2	0	0	1	1	284.802	0.159209	0.158975	-0.26607	3	0.00857337	40	31.3182	-4.22986e-05
2	0	0	1	1	287.251	0.208186	0.2078	-0.195613	3	0.00800665	40	33.7671	-4.06483e-05
2	0	0	1	1	289.7	0.257162	0.256605	-0.124769	3	0.00761571	40	36.2159	-3.20163e-05
2	0	0	1	1	292.149	0.30614	0.305747	-0.0679858	3	0.00738423	40	38.6648	-2.07864e-05
2	0	0	1	1	294.628	0.355716	0.355354	-0.0317945	3	0.00726494	41	41.1436	-1.12983e-05
2	0	0	1	1	297.077	0.404692	0.403939	-0.0120837	3	0.00721385	41	43.5924	-4.88108e-06
2	0	0	1	1	299.555	0.454269	0.454058	-0.000539842	3	0.00719922	42	46.0712	-2.45119e-07
2	1	0	0	1	299.938	0.46194	0.461004	0.000985166	3	0.0071993	43	0.2276	4.54166e-07

File: 240219-CV-EIS-Fe2Fe3_5mM-HCl1M-1225RPM-Ag_AgCl_BLF8-GC-RDE_03_PEIS_C15.mpt
EC-Lab ASCII FILE
Nb header lines : 66

Potentio Electrochemical Impedance Spectroscopy

Run on channel : 15 (SN 19485)
User :
Electrode connection : standard
Potential control : Ewe
Ewe ctrl range : min = -1.00 V, max = 1.00 V
Ewe,I filtering : <None>
Safety Limits :
	Do not start on E overload
Channel : Floating
Acquisition started on : 02/19/2024 16:52:12.543
Loaded Setting File :  C:\Data\mathias\RDE-RPM-variation\240219-CV-EIS-Fe2Fe3_5mM-HCl1M-RPMtest-Ag_AgCl_BLF8-GC-RDE.mps
Saved on :
	File : 240219-CV-EIS-Fe2Fe3_5mM-HCl1M-1225RPM-Ag_AgCl_BLF8-GC-RDE_03_PEIS_C15.mpr
	Directory : C:\Data\mathias\RDE-RPM-variation\
	Host : 192.168.0.1
Device : VMP-300 (SN 0826)
Address : USB
EC-Lab for windows v11.52 (software)
Internet server v11.52 (firmware)
Command interpretor v11.52 (firmware)
Electrode material :
Initial state :
Electrolyte :
Comments :
Cable : special
Electrode surface area : 0.001 cm²
Characteristic mass : 0.001 g
Equivalent Weight : 0.000 g/eq.
Density : 0.000 g/cm3
Volume (V) : 0.001 cm³
Record EIS quality indicators
Cycle Definition : Charge/Discharge alternance
Mode                Single sine
E (V)               0.0000
vs.                 Ref
tE (h:m:s)          0:00:0.0000
record              0
dI                  0.000
unit dI             mA
dt (s)              0.000
fi                  400.000
unit fi             kHz
ff                  100.000
unit ff             mHz
Nd                  10
Points              per decade
spacing             Logarithmic
Va (mV)             7.0
pw                  0.10
Na                  3
corr                0
E range min (V)     -1.000
E range max (V)     1.000
I Range             Auto
Bandwidth           8
nc cycles           2
goto Ns'            0
nr cycles           0
inc. cycle          1

freq/Hz	Re(Z)/Ohm	-Im(Z)/Ohm	|Z|/Ohm	Phase(Z)/deg	time/s	<Ewe>/V	<I>/mA	Cs/µF	Cp/µF	cycle number	I Range	|Ewe|/V	|I|/A	Ns	(Q-Qo)/mA.h	THD Ewe/%	NSD Ewe/%	NSR Ewe/%	|Ewe h2|/V	|Ewe h3|/V	|Ewe h4|/V	|Ewe h5|/V	|Ewe h6|/V	|Ewe h7|/V	THD I/%	NSD I/%	NSR I/%	|I h2|/A	|I h3|/A	|I h4|/A	|I h5|/A	|I h6|/A	|I h7|/A	Re(Y)/Ohm-1	Im(Y)/Ohm-1	|Y|/Ohm-1	Phase(Y)/deg	Re(C)/nF	Im(C)/nF	|C|/nF	Phase(C)/deg	Re(M)	Im(M)	|M|	Phase(M)/deg	Re(Permittivity)	Im(Permittivity)	|Permittivity|	Phase(Permittivity)/deg	Re(Resistivity)/Ohm.cm	Im(Resistivity)/Ohm.cm	|Resistivity|/Ohm.cm	Phase(Resistivity)/deg	Re(Conductivity)/mS/cm	Im(Conductivity)/mS/cm	|Conductivity|/mS/cm	Phase(Conductivity)/deg	Tan(Delta)	Loss Angle(Delta)/deg	dq/mA.h
399996	3.68135	1.3077	3.90671	-19.5563	362.416	-0.000158378	-0.401523	0.304267	0.0340918	1	38	0.00648203	0.0016592	0	-0.00025466	-1	-1	-1	0	0	0	0	0	0	-1	-1	-1	0	0	0	0	0	0	0.241204	0.0856814	0.25597	19.5563	34.0918	95.9728	101.848	-70.4437	0.0000000E+000	0.0000000E+000	0.0000000E+000	70.4437	0.0000000E+000	0.0000000E+000	0.0000000E+000	-70.4437	0.0000000E+000	0.0000000E+000	0.0000000E+000	-19.5563	0.0000000E+000	0.0000000E+000	0.0000000E+000	19.5563	2.81512	70.4437	-0.00025466
20032.3	3.88281	2.28971	4.50766	-30.5281	377.329	-0.000130566	-0.394388	3.46983	0.8953	1	38	0.00724646	0.00160759	0	-0.00188082	0.749284	0.323404	15.0879	2.21192e-05	1.72304e-05	1.54661e-05	2.28605e-05	2.02561e-05	2.35807e-05	0.114895	0.0521677	1.91993	9.65158e-07	9.38903e-07	4.33223e-07	7.53726e-07	4.38718e-07	4.9885e-07	0.191093	0.112688	0.221845	30.5281	895.3	1518.22	1762.54	-59.4719	0.0000000E+000	0.0000000E+000	0.0000000E+000	59.4719	0.0000000E+000	0.0000000E+000	0.0000000E+000	-59.4719	0.0000000E+000	0.0000000E+000	0.0000000E+000	-30.5281	0.0000000E+000	0.0000000E+000	0.0000000E+000	30.5281	1.69576	59.4719	-0.000124036
1002.75	12.8691	28.0607	30.8709	-65.3631	392.268	-0.000235065	-0.393196	5.65625	4.67332	1	38	0.00669421	0.000216845	0	-0.00349448	1.09167	0.434913	16.4742	1.85278e-05	3.46722e-05	1.89868e-05	4.78639e-05	1.87921e-05	1.63148e-05	0.982405	0.459536	13.508	8.28064e-07	1.43383e-06	5.29791e-07	6.45026e-07	5.97642e-07	4.82889e-07	0.0135035	0.0294441	0.0323929	65.3631	4673.32	2143.26	5141.35	-24.6369	0.0000000E+000	0.0000000E+000	0.0000000E+000	24.6369	0.0000000E+000	0.0000000E+000	0.0000000E+000	-24.6369	0.0000000E+000	0.0000000E+000	0.0000000E+000	-65.3631	0.0000000E+000	0.0000000E+000	0.0000000E+000	65.3631	0.458616	24.6369	-0.000120022
50.2089	145.329	201.543	248.476	-54.2053	407.066	-0.00023665	-0.385868	15.7279	10.3476	1	40	0.00659781	2.65531e-05	0	-0.005061	1.85014	1.21637	32.8723	4.16748e-05	5.61316e-05	5.65878e-05	4.14518e-05	4.14148e-05	3.1304e-05	0.62	0.453472	12.1652	9.36729e-08	6.30507e-08	6.9121e-08	5.96464e-08	4.05786e-08	4.21432e-08	0.00235388	0.00326438	0.00402454	54.2053	10347.6	7461.47	12757.2	-35.7947	0.0000000E+000	0.0000000E+000	0.0000000E+000	35.7947	0.0000000E+000	0.0000000E+000	0.0000000E+000	-35.7947	0.0000000E+000	0.0000000E+000	0.0000000E+000	-54.2053	0.0000000E+000	0.0000000E+000	0.0000000E+000	54.2053	0.721082	35.7947	-0.000113662
2.51368	954.841	853.639	1280.79	-41.7971	425.814	-0.000212742	-0.385323	74.1714	32.9481	1	40	0.00658371	5.14036e-06	0	-0.00705397	0.695007	0.237482	12.1337	1.8838e-05	1.6344e-05	1.42343e-05	1.41281e-05	2.32665e-05	1.95752e-05	8.73586	22.9661	22.4601	3.21859e-07	1.94965e-07	1.40753e-07	6.03092e-08	6.72612e-08	6.39148e-08	0.000582071	0.000520378	0.000780769	41.7971	32948.1	36854.2	49434.8	-48.2029	0.0000000E+000	0.0000000E+000	0.0000000E+000	48.2029	0.0000000E+000	0.0000000E+000	0.0000000E+000	-48.2029	0.0000000E+000	0.0000000E+000	0.0000000E+000	-41.7971	0.0000000E+000	0.0000000E+000	0.0000000E+000	41.7971	1.11855	48.2029	-0.000298628
0.125939	2735.36	238.407	2745.73	-4.98115	654.053	-0.00023461	-0.382888	5300.81	39.9634	1	40	0.00658701	2.399e-06	0	-0.0313667	0.16559	0.0751749	2.60535	3.22226e-06	6.72884e-06	3.98576e-06	4.05832e-06	2.21648e-06	3.98899e-06	39.5085	18.0494	78.1847	4.33749e-07	3.85865e-07	3.97578e-07	4.15689e-07	2.25488e-07	2.49768e-07	0.000362826	3.16229e-05	0.000364201	4.98115	39963.4	458521	460259	-85.0188	0.0000000E+000	0.0000000E+000	0.0000000E+000	85.0188	0.0000000E+000	0.0000000E+000	0.0000000E+000	-85.0188	0.0000000E+000	0.0000000E+000	0.0000000E+000	-4.98115	0.0000000E+000	0.0000000E+000	0.0000000E+000	4.98115	11.4735	85.0188	-0.00518737
31751	3.72366	1.66047	4.07711	-24.0332	730.158	-0.000140594	-0.382686	3.01878	0.500713	2	38	0.00724516	0.00177704	0	-0.039452	0.78969	0.508264	16.2461	2.03992e-05	1.91467e-05	2.2202e-05	2.62119e-05	2.44766e-05	2.10371e-05	0.0974577	0.0590476	1.69337	7.20492e-07	5.19255e-07	5.14723e-07	6.84792e-07	6.49545e-07	8.28629e-07	0.224009	0.099891	0.245272	24.0332	500.713	1122.87	1229.45	-65.9668	0.0000000E+000	0.0000000E+000	0.0000000E+000	65.9668	0.0000000E+000	0.0000000E+000	0.0000000E+000	-65.9668	0.0000000E+000	0.0000000E+000	0.0000000E+000	-24.0332	0.0000000E+000	0.0000000E+000	0.0000000E+000	24.0332	2.24254	65.9668	-0.000119928
[...]
2519.19	7.35473	14.2068	15.9977	-62.6298	1098.24	-0.000255645	-0.380386	4.44696	3.50705	3	38	0.00707874	0.000442486	0	-0.0782332	0.726226	0.433631	14.8598	1.90982e-05	1.32302e-05	2.72709e-05	2.32627e-05	1.73892e-05	1.63366e-05	0.628005	0.223479	6.73696	2.23762e-06	9.749e-07	5.92124e-07	7.68725e-07	5.52285e-07	5.29037e-07	0.0287379	0.0555115	0.0625092	62.6298	3507.05	1815.57	3949.14	-27.3702	0.0000000E+000	0.0000000E+000	0.0000000E+000	27.3702	0.0000000E+000	0.0000000E+000	0.0000000E+000	-27.3702	0.0000000E+000	0.0000000E+000	0.0000000E+000	-62.6298	0.0000000E+000	0.0000000E+000	0.0000000E+000	62.6298	0.517691	27.3702	-0.000138552
126.171	77.8461	122.494	145.137	-57.5637	1112.88	-0.000204066	-0.379034	10.2978	7.3353	3	39	0.00663364	4.5706e-05	0	-0.0797591	0.883066	0.448579	17.135	2.50415e-05	2.49635e-05	1.7952e-05	2.17525e-05	2.7674e-05	1.4288e-05	1.61415	0.989518	31.0482	3.15912e-07	2.89969e-07	2.64511e-07	3.157e-07	2.32993e-07	2.42752e-07	0.00369555	0.0058151	0.00689003	57.5637	7335.3	4661.64	8691.23	-32.4363	0.0000000E+000	0.0000000E+000	0.0000000E+000	32.4363	0.0000000E+000	0.0000000E+000	0.0000000E+000	-32.4363	0.0000000E+000	0.0000000E+000	0.0000000E+000	-57.5637	0.0000000E+000	0.0000000E+000	0.0000000E+000	57.5637	0.635508	32.4363	-0.000115065
6.31569	528.149	468.663	706.106	-41.5849	1127.57	-0.000230182	-0.377803	53.7699	23.6876	3	40	0.00659403	9.33858e-06	0	-0.0812862	1.12057	0.854197	22.5479	1.42867e-05	3.10738e-05	3.18331e-05	4.44901e-05	2.26826e-05	2.15501e-05	3.33833	10.4631	21.259	2.35988e-07	1.47224e-07	8.29707e-08	5.80696e-08	5.20047e-08	4.63232e-08	0.00105929	0.000939984	0.00141622	41.5849	23687.6	26694.1	35688.6	-48.4151	0.0000000E+000	0.0000000E+000	0.0000000E+000	48.4151	0.0000000E+000	0.0000000E+000	0.0000000E+000	-48.4151	0.0000000E+000	0.0000000E+000	0.0000000E+000	-41.5849	0.0000000E+000	0.0000000E+000	0.0000000E+000	41.5849	1.12693	48.4151	-0.000143642
0.316193	2544.79	350.28	2568.78	-7.83728	1221.27	-0.00021968	-0.3776	1436.99	26.7195	3	40	0.0065893	2.56515e-06	0	-0.0911062	0.247078	0.113648	4.2463	6.795e-06	4.22478e-06	8.7579e-06	7.55318e-06	5.83931e-06	3.24152e-06	46.6111	30.0288	59.1623	5.78539e-07	5.02423e-07	4.48812e-07	4.66567e-07	3.72286e-07	2.96795e-07	0.000385653	5.30836e-05	0.00038929	7.83728	26719.5	194118	195948	-82.1627	0.0000000E+000	0.0000000E+000	0.0000000E+000	82.1627	0.0000000E+000	0.0000000E+000	0.0000000E+000	-82.1627	0.0000000E+000	0.0000000E+000	0.0000000E+000	-7.83728	0.0000000E+000	0.0000000E+000	0.0000000E+000	7.83728	7.26502	82.1627	-0.00205706
0.0999518	2476.66	-52.7162	2477.22	1.21937	1425.86	-0.000209205	-0.376192	-30205.5	-13.6787	3	40	0.00658493	2.65819e-06	0	-0.112504	0.184374	0.111058	2.53692	5.86826e-06	5.27986e-06	3.92269e-06	5.73775e-06	1.62215e-06	4.0897e-06	38.9406	17.5736	73.028	3.25742e-07	4.1931e-07	5.70641e-07	3.96815e-07	2.90702e-07	2.91441e-07	0.000403587	-8.59043e-06	0.000403678	-1.21937	-13678.7	642639	642784	-91.2194	0.0000000E+000	0.0000000E+000	0.0000000E+000	91.2194	0.0000000E+000	0.0000000E+000	0.0000000E+000	-91.2194	0.0000000E+000	0.0000000E+000	0.0000000E+000	1.21937	0.0000000E+000	0.0000000E+000	0.0000000E+000	-1.21937	46.981	88.7806	-0.00641249