Folder: Thesis/Python/Data/RDE (part 5)

File: 240219-CV-EIS-Fe2Fe3_5mM-HCl1M-2000RPM-Ag_AgCl_BLF8-GC-RDE_01_CV_C15.mpt
EC-Lab ASCII FILE
Nb header lines : 60

Cyclic Voltammetry

Run on channel : 15 (SN 19485)
User :
Electrode connection : standard
Potential control : Ewe
Ewe ctrl range : min = -1.00 V, max = 1.00 V
Ewe,I filtering : <None>
Safety Limits :
	Do not start on E overload
Channel : Floating
Acquisition started on : 02/19/2024 17:18:57.744
Loaded Setting File :  C:\Data\mathias\RDE-RPM-variation\240219-CV-EIS-Fe2Fe3_5mM-HCl1M-RPMtest-Ag_AgCl_BLF8-GC-RDE.mps
Saved on :
	File : 240219-CV-EIS-Fe2Fe3_5mM-HCl1M-2000RPM-Ag_AgCl_BLF8-GC-RDE_01_CV_C15.mpr
	Directory : C:\Data\mathias\RDE-RPM-variation\
	Host : 192.168.0.1
Device : VMP-300 (SN 0826)
Address : USB
EC-Lab for windows v11.52 (software)
Internet server v11.52 (firmware)
Command interpretor v11.52 (firmware)
Electrode material :
Initial state :
Electrolyte :
Comments :
Cable : special
Electrode surface area : 0.001 cm²
Characteristic mass : 0.001 g
Equivalent Weight : 0.000 g/eq.
Density : 0.000 g/cm3
Volume (V) : 0.001 cm³
Record EIS quality indicators
Cycle Definition : Charge/Discharge alternance
Ei (V)              0.000
vs.                 Eoc
dE/dt               20.000
dE/dt unit          mV/s
E1 (V)              1.000
vs.                 Ref
Step percent        50
N                   10
E range min (V)     -1.000
E range max (V)     1.000
I Range             Auto
I Range min         Unset
I Range max         Unset
I Range init        Unset
Bandwidth           8
E2 (V)              0.000
vs.                 Ref
nc cycles           2
Reverse Scan        1
Ef (V)              0.000
vs.                 Eoc

mode	ox/red	error	control changes	counter inc.	time/s	control/V	Ewe/V	<I>/mA	cycle number	(Q-Qo)/C	I Range	step time/s	P/W
2	1	0	1	0	0.000000000000000E+000	0.46309	0.462035	0.000360518	1	0.0000000E+000	43	0.000000000000000E+000	1.66572e-07
2	1	0	1	0	2.4676	0.512441	0.511952	0.0091336	1	1.13609e-05	42	2.4538	4.67596e-06
2	1	0	1	0	4.9465	0.562017	0.561725	0.0231148	1	4.97047e-05	41	4.9327	1.29842e-05
2	1	0	1	0	7.3953	0.610994	0.61082	0.048996	1	0.000135112	41	7.3815	2.99277e-05
2	1	0	1	0	9.8441	0.659971	0.65963	0.0920361	1	0.000304494	41	9.8303	6.07098e-05
2	1	0	1	0	12.323	0.709547	0.709212	0.151568	1	0.000603631	40	12.3092	0.000107494
2	1	0	1	0	14.7718	0.758524	0.758062	0.223873	1	0.00106021	40	14.758	0.00016971
2	1	0	1	0	17.2206	0.807501	0.807048	0.304101	1	0.00170477	40	17.2068	0.000245424
2	1	0	1	0	19.6695	0.856477	0.856117	0.377895	1	0.00254129	40	19.6557	0.000323523
2	1	0	1	0	22.1183	0.905454	0.905089	0.440433	1	0.0035445	40	22.1045	0.000398631
2	1	0	1	0	24.5671	0.954431	0.9541	0.485998	1	0.00468105	40	24.5533	0.000463691
2	1	0	1	0	26.9842	0.99721	0.996851	0.516789	1	0.00589739	40	26.9704	0.000515162
2	1	0	1	0	29.433	0.948234	0.948105	0.476604	1	0.00711147	40	29.4192	0.000451871
2	1	0	1	0	31.8818	0.899257	0.899132	0.422952	1	0.00821463	40	31.868	0.00038029
2	1	0	1	0	34.3307	0.85028	0.849968	0.354123	1	0.00916957	40	34.3169	0.000300993
2	1	0	1	0	36.7795	0.801304	0.800883	0.276714	1	0.00994299	40	36.7657	0.000221616
2	1	0	1	0	39.2284	0.752326	0.751854	0.196848	1	0.01052	40	39.2146	0.000148001
2	1	0	1	0	41.6772	0.70335	0.703126	0.129406	1	0.010916	40	41.6634	9.0989e-05
2	1	0	1	0	44.126	0.654373	0.654134	0.0770596	1	0.0111657	40	44.1122	5.04073e-05
2	1	0	1	0	46.6048	0.604798	0.604504	0.0396839	1	0.0113067	41	46.591	2.39891e-05
2	1	0	1	0	49.0537	0.55582	0.555461	0.0181683	1	0.0113745	41	49.0399	1.00918e-05
2	1	0	1	0	51.5025	0.506844	0.506729	0.0063532	1	0.0114029	41	51.4887	3.21935e-06
2	0	0	1	0	54.0438	0.456018	0.455713	-0.00196387	1	0.011408	42	0.6047	-8.94959e-07
2	0	0	1	0	56.4926	0.407041	0.406732	-0.0108305	1	0.011393	42	3.0535	-4.4051e-06
2	0	0	1	0	58.9715	0.357465	0.357345	-0.0266087	1	0.0113488	41	5.5324	-9.5085e-06
2	0	0	1	0	61.4203	0.308488	0.308236	-0.0570752	1	0.0112502	41	7.9812	-1.75927e-05
2	0	0	1	0	63.8991	0.258912	0.258682	-0.111661	1	0.0110465	40	10.46	-2.88848e-05
2	0	0	1	0	66.348	0.209935	0.209693	-0.191314	1	0.0106794	40	12.9089	-4.01172e-05
2	0	0	1	0	68.7968	0.160958	0.16079	-0.2829	1	0.0100998	40	15.3577	-4.54876e-05
2	0	0	1	0	71.2456	0.111981	0.111698	-0.364081	1	0.00930502	40	17.8065	-4.0667e-05
2	0	0	1	0	73.6945	0.0630047	0.0628053	-0.42477	1	0.00833377	40	20.2554	-2.66778e-05
2	0	0	1	0	76.1433	0.014028	0.0137028	-0.463952	1	0.00723794	40	22.7042	-6.35745e-06
2	0	0	1	1	78.5578	0.0342684	0.0339875	-0.447153	1	0.00611896	40	25.1187	-1.51976e-05
2	0	0	1	1	81.0066	0.0832442	0.0828998	-0.399188	1	0.00507856	40	27.5675	-3.30926e-05
2	0	0	1	1	83.4555	0.132222	0.131801	-0.328165	1	0.00418547	40	30.0164	-4.32525e-05
2	0	0	1	1	85.9043	0.181198	0.181023	-0.242049	1	0.00348577	40	32.4652	-4.38163e-05
2	0	0	1	1	88.3532	0.230175	0.229813	-0.154315	1	0.00300244	40	34.9141	-3.54636e-05
2	0	0	1	1	90.802	0.279152	0.278876	-0.08573	1	0.00271296	40	37.3629	-2.39081e-05
2	0	0	1	1	93.2808	0.328728	0.32865	-0.041461	1	0.00256056	41	39.8417	-1.36262e-05
2	0	0	1	1	95.7296	0.377704	0.377457	-0.0177211	1	0.00249137	41	42.2905	-6.68895e-06
2	0	0	1	1	98.1785	0.426682	0.426339	-0.00515125	1	0.00246503	41	44.7394	-2.19618e-06
2	1	0	1	1	100.687	0.476858	0.476755	0.00340446	2	0.00246317	42	1.0245	1.6231e-06
2	1	0	1	1	103.166	0.526434	0.52622	0.0131014	2	0.0024829	41	3.5033	6.89421e-06
2	1	0	1	1	105.615	0.575412	0.575279	0.029692	2	0.00253344	41	5.9522	1.70812e-05
2	1	0	1	1	108.064	0.624388	0.624013	0.060097	2	0.00264014	41	8.401	3.75013e-05
2	1	0	1	1	110.513	0.673364	0.672877	0.107856	2	0.00284271	41	10.8498	7.25737e-05
2	1	0	1	1	112.991	0.722941	0.72295	0.171003	2	0.00318586	40	13.3286	0.000123626
2	1	0	1	1	115.44	0.771918	0.771856	0.24627	2	0.00369481	40	15.7775	0.000190085
2	1	0	1	1	117.889	0.820894	0.820609	0.325265	2	0.00439517	40	18.2263	0.000266916
2	1	0	1	1	120.338	0.869872	0.869323	0.39408	2	0.00528157	40	20.6752	0.000342583
2	1	0	1	1	122.787	0.918848	0.918409	0.451745	2	0.00632543	40	23.124	0.000414887
2	1	0	1	1	125.236	0.967824	0.96757	0.496532	2	0.00749204	40	25.5728	0.000480429
2	1	0	1	1	127.658	0.983717	0.983556	0.503799	2	0.0087232	40	27.9949	0.000495515
2	1	0	1	1	130.106	0.93474	0.934552	0.462421	2	0.00990975	40	30.4437	0.000432157
2	1	0	1	1	132.555	0.885763	0.885402	0.405579	2	0.0109751	40	32.8925	0.000359101
2	1	0	1	1	135.004	0.836787	0.836331	0.333397	2	0.0118828	40	35.3414	0.000278831
2	1	0	1	1	137.453	0.78781	0.787466	0.253468	2	0.0126019	40	37.7902	0.000199597
2	1	0	1	1	139.902	0.738833	0.738662	0.176214	2	0.0131253	40	40.239	0.000130162
2	1	0	1	1	142.351	0.689857	0.68963	0.113554	2	0.0134766	40	42.6879	7.83103e-05
2	1	0	1	1	144.799	0.64088	0.640371	0.0650905	2	0.013692	40	45.1367	4.16821e-05
2	1	0	1	1	147.278	0.591303	0.59111	0.0323371	2	0.013809	41	47.6155	1.91148e-05
2	1	0	1	1	149.727	0.542327	0.541946	0.0142444	2	0.0138634	41	50.0644	7.71971e-06
2	1	0	1	1	152.206	0.49275	0.49234	0.00377871	2	0.0138845	42	52.5432	1.86041e-06
2	0	0	1	1	154.715	0.442574	0.44206	-0.00410726	2	0.0138841	42	1.2794	-1.81566e-06
2	0	0	1	1	157.194	0.392998	0.392894	-0.0143005	2	0.0138623	41	3.7582	-5.61858e-06
2	0	0	1	1	159.642	0.344022	0.343835	-0.033053	2	0.0138067	41	6.207	-1.13648e-05
2	0	0	1	1	162.091	0.295044	0.294665	-0.0690805	2	0.013686	41	8.6559	-2.03556e-05
2	0	0	1	1	164.57	0.245468	0.244957	-0.13094	2	0.0134434	40	11.1347	-3.20747e-05
2	0	0	1	1	167.019	0.196491	0.196164	-0.215176	2	0.0130222	40	13.5835	-4.22097e-05
[...]
2	0	0	1	0	193.954	0.342222	0.342176	-0.0332322	2	0.00501651	41	40.5189	-1.13713e-05
2	0	0	1	0	196.403	0.391199	0.390833	-0.0134104	2	0.00496219	41	42.9677	-5.24124e-06
2	0	0	1	0	198.882	0.440776	0.44049	-0.00252521	2	0.00494368	42	45.4466	-1.11233e-06
2	1	0	1	0	201.361	0.490351	0.490085	0.00568871	3	0.00494756	42	1.6992	2.78795e-06
2	1	0	1	0	203.84	0.539928	0.539616	0.0165959	3	0.00497419	41	4.178	8.95542e-06
2	1	0	1	0	206.288	0.588905	0.588708	0.0361574	3	0.0050366	41	6.6268	2.12861e-05
2	1	0	1	0	208.737	0.637881	0.637822	0.0711212	3	0.00516463	41	9.0757	4.53627e-05
2	1	0	1	0	211.216	0.687458	0.687024	0.123811	3	0.00540315	40	11.5545	8.50615e-05
2	1	0	1	0	213.665	0.736434	0.736009	0.189111	3	0.00578384	40	14.0033	0.000139188
2	1	0	1	0	216.114	0.785411	0.78524	0.266775	3	0.00634083	40	16.4522	0.000209482
2	1	0	1	0	218.563	0.834388	0.834027	0.344118	3	0.00709063	40	18.901	0.000287004
2	1	0	1	0	221.011	0.883365	0.883098	0.410382	3	0.00801988	40	21.3498	0.000362407
2	1	0	1	0	223.46	0.932341	0.932042	0.46344	3	0.00909894	40	23.7987	0.000431945
2	1	0	1	0	225.909	0.981318	0.980999	0.50734	3	0.0102901	40	26.2475	0.0004977
2	1	0	1	0	228.331	0.970223	0.969931	0.493616	3	0.011517	40	28.6695	0.000478774
2	1	0	1	0	230.78	0.921247	0.920872	0.447226	3	0.0126713	40	31.1184	0.000411838
2	1	0	1	0	233.229	0.87227	0.871902	0.385516	3	0.0136934	40	33.5672	0.000336132
2	1	0	1	0	235.678	0.823293	0.822939	0.310351	3	0.0145463	40	36.016	0.0002554
2	1	0	1	0	238.126	0.774316	0.774051	0.229159	3	0.0152059	40	38.4649	0.00017738
2	1	0	1	0	240.575	0.72534	0.725057	0.156146	3	0.0156748	40	40.9137	0.000113215
2	1	0	1	0	243.024	0.676362	0.676032	0.097896	3	0.0159822	40	43.3626	6.61808e-05
2	1	0	1	0	245.473	0.627386	0.627052	0.0539942	3	0.0161645	40	45.8114	3.38572e-05
2	1	0	1	0	247.952	0.57781	0.577298	0.0259679	3	0.0162599	41	48.2902	1.49912e-05
2	1	0	1	0	250.401	0.528833	0.528577	0.0107554	3	0.0163026	41	50.739	5.68507e-06
2	1	0	1	0	252.879	0.479257	0.478746	0.00157514	3	0.016317	42	53.2179	7.5409e-07
2	0	0	1	0	255.388	0.429081	0.429015	-0.00638952	3	0.0163112	42	1.9791	-2.7412e-06
2	0	0	1	0	257.867	0.379504	0.379313	-0.0181336	3	0.0162822	41	4.4579	-6.8783e-06
2	0	0	1	0	260.316	0.330527	0.330377	-0.040572	3	0.0162132	41	6.9067	-1.34041e-05
2	0	0	1	0	262.765	0.281551	0.281364	-0.0825784	3	0.0160672	41	9.3556	-2.32346e-05
2	0	0	1	0	265.244	0.231974	0.231905	-0.151594	3	0.0157821	40	11.8344	-3.51552e-05
2	0	0	1	0	267.692	0.182998	0.182574	-0.239318	3	0.0153057	40	14.2832	-4.36933e-05
2	0	0	1	0	270.141	0.134021	0.133758	-0.328129	3	0.0146084	40	16.7321	-4.38898e-05
2	0	0	1	0	272.59	0.0850442	0.0842803	-0.401934	3	0.0137127	40	19.1809	-3.38751e-05
2	0	0	1	0	275.039	0.0360675	0.0356609	-0.450744	3	0.0126677	40	21.6297	-1.6074e-05
2	0	0	1	1	277.456	0.0122788	0.0121231	-0.463078	3	0.0115434	40	24.0467	-5.61395e-06
2	0	0	1	1	279.905	0.0612555	0.0613114	-0.42342	3	0.0104538	40	26.4956	-2.59605e-05
2	0	0	1	1	282.354	0.110232	0.110053	-0.363653	3	0.00948947	40	28.9444	-4.0021e-05
2	0	0	1	1	284.802	0.159209	0.15896	-0.280563	3	0.00870109	40	31.3932	-4.45983e-05
2	0	0	1	1	287.251	0.208186	0.20821	-0.191164	3	0.00812438	40	33.8421	-3.98022e-05
2	0	0	1	1	289.7	0.257162	0.256826	-0.112503	3	0.00775695	40	36.2909	-2.88937e-05
2	0	0	1	1	292.149	0.30614	0.305831	-0.057842	3	0.0075537	40	38.7398	-1.76899e-05
2	0	0	1	1	294.628	0.355716	0.355074	-0.026181	3	0.00745364	41	41.2186	-9.29619e-06
2	0	0	1	1	297.077	0.404692	0.404403	-0.00976615	3	0.00741192	41	43.6674	-3.94946e-06
2	0	0	1	1	299.585	0.454868	0.454493	-0.000157362	3	0.00740035	43	46.1762	-7.152e-08
2	1	0	1	1	299.938	0.46194	0.462474	0.000968477	3	0.00740049	43	0.278	4.47896e-07

File: 240219-CV-EIS-Fe2Fe3_5mM-HCl1M-2000RPM-Ag_AgCl_BLF8-GC-RDE_03_PEIS_C15.mpt
EC-Lab ASCII FILE
Nb header lines : 66

Potentio Electrochemical Impedance Spectroscopy

Run on channel : 15 (SN 19485)
User :
Electrode connection : standard
Potential control : Ewe
Ewe ctrl range : min = -1.00 V, max = 1.00 V
Ewe,I filtering : <None>
Safety Limits :
	Do not start on E overload
Channel : Floating
Acquisition started on : 02/19/2024 17:18:57.744
Loaded Setting File :  C:\Data\mathias\RDE-RPM-variation\240219-CV-EIS-Fe2Fe3_5mM-HCl1M-RPMtest-Ag_AgCl_BLF8-GC-RDE.mps
Saved on :
	File : 240219-CV-EIS-Fe2Fe3_5mM-HCl1M-2000RPM-Ag_AgCl_BLF8-GC-RDE_03_PEIS_C15.mpr
	Directory : C:\Data\mathias\RDE-RPM-variation\
	Host : 192.168.0.1
Device : VMP-300 (SN 0826)
Address : USB
EC-Lab for windows v11.52 (software)
Internet server v11.52 (firmware)
Command interpretor v11.52 (firmware)
Electrode material :
Initial state :
Electrolyte :
Comments :
Cable : special
Electrode surface area : 0.001 cm²
Characteristic mass : 0.001 g
Equivalent Weight : 0.000 g/eq.
Density : 0.000 g/cm3
Volume (V) : 0.001 cm³
Record EIS quality indicators
Cycle Definition : Charge/Discharge alternance
Mode                Single sine
E (V)               0.0000
vs.                 Ref
tE (h:m:s)          0:00:0.0000
record              0
dI                  0.000
unit dI             mA
dt (s)              0.000
fi                  400.000
unit fi             kHz
ff                  100.000
unit ff             mHz
Nd                  10
Points              per decade
spacing             Logarithmic
Va (mV)             7.0
pw                  0.10
Na                  3
corr                0
E range min (V)     -1.000
E range max (V)     1.000
I Range             Auto
Bandwidth           8
nc cycles           2
goto Ns'            0
nr cycles           0
inc. cycle          1

freq/Hz	Re(Z)/Ohm	-Im(Z)/Ohm	|Z|/Ohm	Phase(Z)/deg	time/s	<Ewe>/V	<I>/mA	Cs/µF	Cp/µF	cycle number	I Range	|Ewe|/V	|I|/A	Ns	(Q-Qo)/mA.h	THD Ewe/%	NSD Ewe/%	NSR Ewe/%	|Ewe h2|/V	|Ewe h3|/V	|Ewe h4|/V	|Ewe h5|/V	|Ewe h6|/V	|Ewe h7|/V	THD I/%	NSD I/%	NSR I/%	|I h2|/A	|I h3|/A	|I h4|/A	|I h5|/A	|I h6|/A	|I h7|/A	Re(Y)/Ohm-1	Im(Y)/Ohm-1	|Y|/Ohm-1	Phase(Y)/deg	Re(C)/nF	Im(C)/nF	|C|/nF	Phase(C)/deg	Re(M)	Im(M)	|M|	Phase(M)/deg	Re(Permittivity)	Im(Permittivity)	|Permittivity|	Phase(Permittivity)/deg	Re(Resistivity)/Ohm.cm	Im(Resistivity)/Ohm.cm	|Resistivity|/Ohm.cm	Phase(Resistivity)/deg	Re(Conductivity)/mS/cm	Im(Conductivity)/mS/cm	|Conductivity|/mS/cm	Phase(Conductivity)/deg	Tan(Delta)	Loss Angle(Delta)/deg	dq/mA.h
399996	3.6634	1.31795	3.89326	-19.7868	362.416	-0.000131554	-0.485075	0.301901	0.0345968	1	38	0.00647691	0.00166362	0	-0.000309914	-1	-1	-1	0	0	0	0	0	0	-1	-1	-1	0	0	0	0	0	0	0.241689	0.0869506	0.256854	19.7868	34.5968	96.1659	102.2	-70.2132	0.0000000E+000	0.0000000E+000	0.0000000E+000	70.2132	0.0000000E+000	0.0000000E+000	0.0000000E+000	-70.2132	0.0000000E+000	0.0000000E+000	0.0000000E+000	-19.7868	0.0000000E+000	0.0000000E+000	0.0000000E+000	19.7868	2.77962	70.2132	-0.000309914
20032.3	3.91097	2.26196	4.51798	-30.0435	377.328	-0.000100778	-0.483035	3.5124	0.880412	1	38	0.00729176	0.00161394	0	-0.00229788	0.828309	0.559551	16.2169	1.90923e-05	2.10791e-05	1.66927e-05	1.86532e-05	3.13662e-05	2.20502e-05	0.124149	0.0672401	1.94165	1.06405e-06	6.08178e-07	5.61032e-07	6.85654e-07	7.48144e-07	7.48828e-07	0.1916	0.110814	0.221338	30.0435	880.412	1522.25	1758.51	-59.9565	0.0000000E+000	0.0000000E+000	0.0000000E+000	59.9565	0.0000000E+000	0.0000000E+000	0.0000000E+000	-59.9565	0.0000000E+000	0.0000000E+000	0.0000000E+000	-30.0435	0.0000000E+000	0.0000000E+000	0.0000000E+000	30.0435	1.72902	59.9565	-0.000149745
1002.75	13.3118	26.3221	29.4967	-63.1731	392.273	-0.000241142	-0.480119	6.02985	4.80176	1	38	0.00671131	0.000227527	0	-0.00426699	1.05734	0.533796	18.6372	2.76009e-05	2.81308e-05	2.60342e-05	3.73733e-05	2.62499e-05	1.97894e-05	0.944706	0.577059	14.089	8.52556e-07	5.04691e-07	9.96522e-07	9.81231e-07	6.89421e-07	5.98288e-07	0.0152999	0.0302533	0.0339021	63.1731	4801.76	2428.38	5380.88	-26.8269	0.0000000E+000	0.0000000E+000	0.0000000E+000	26.8269	0.0000000E+000	0.0000000E+000	0.0000000E+000	-26.8269	0.0000000E+000	0.0000000E+000	0.0000000E+000	-63.1731	0.0000000E+000	0.0000000E+000	0.0000000E+000	63.1731	0.505726	26.8269	-0.000146406
50.2089	138.2	164.251	214.657	-49.923	406.811	-0.000232102	-0.471452	19.2989	11.2995	1	39	0.00660862	3.07869e-05	0	-0.00615309	0.95324	0.512784	16.9154	2.74442e-05	2.44845e-05	2.60008e-05	1.96659e-05	2.49102e-05	1.87717e-05	2.70652	1.39471	46.9024	4.09012e-07	3.76444e-07	2.55488e-07	3.50371e-07	2.91533e-07	1.72941e-07	0.00299929	0.00356467	0.0046586	49.923	11299.5	9507.32	14767.1	-40.077	0.0000000E+000	0.0000000E+000	0.0000000E+000	40.077	0.0000000E+000	0.0000000E+000	0.0000000E+000	-40.077	0.0000000E+000	0.0000000E+000	0.0000000E+000	-49.923	0.0000000E+000	0.0000000E+000	0.0000000E+000	49.923	0.841393	40.077	-0.00013854
2.51368	813.439	571.713	994.253	-35.1009	425.815	-0.000211924	-0.470349	110.747	36.618	1	40	0.00658434	6.6224e-06	0	-0.00861359	0.679259	0.35884	12.8518	1.43169e-05	1.61087e-05	2.11194e-05	1.51671e-05	1.9898e-05	1.86227e-05	8.41097	20.8334	19.6119	3.28317e-07	2.81847e-07	1.42243e-07	1.88804e-07	1.07917e-07	5.54308e-08	0.00082287	0.000578341	0.00100578	35.1009	36618	52100.5	63681.6	-54.8991	0.0000000E+000	0.0000000E+000	0.0000000E+000	54.8991	0.0000000E+000	0.0000000E+000	0.0000000E+000	-54.8991	0.0000000E+000	0.0000000E+000	0.0000000E+000	-35.1009	0.0000000E+000	0.0000000E+000	0.0000000E+000	35.1009	1.42281	54.8991	-0.000364642
0.125939	1575.6	9.02505	1575.63	-0.328187	654.055	-0.000218591	-0.464403	140027	4.59413	1	40	0.00658923	4.18197e-06	0	-0.0381997	0.17753	0.102325	2.81267	1.95041e-06	7.0296e-06	4.75298e-06	4.5045e-06	3.78056e-06	3.50324e-06	21.4732	5.99888	43.4424	3.54367e-07	3.59467e-07	4.39177e-07	3.02162e-07	3.26689e-07	3.17288e-07	0.000634657	3.63532e-06	0.000634668	0.328187	4594.12	802048	802061	-89.6718	0.0000000E+000	0.0000000E+000	0.0000000E+000	89.6718	0.0000000E+000	0.0000000E+000	0.0000000E+000	-89.6718	0.0000000E+000	0.0000000E+000	0.0000000E+000	-0.328187	0.0000000E+000	0.0000000E+000	0.0000000E+000	0.328187	174.581	89.6718	-0.0062955
31751	3.74498	1.64964	4.09221	-23.7731	730.319	-0.000146466	-0.463728	3.03861	0.493782	2	38	0.00725674	0.00177331	0	-0.0479971	0.800168	0.585087	15.9749	1.78684e-05	1.5815e-05	1.36092e-05	1.92519e-05	2.47372e-05	2.98211e-05	0.0991052	0.0613892	1.77346	5.14544e-07	6.6962e-07	7.84624e-07	9.29538e-07	4.17751e-07	7.30634e-07	0.223632	0.0985083	0.244367	23.7731	493.782	1120.98	1224.91	-66.2269	0.0000000E+000	0.0000000E+000	0.0000000E+000	66.2269	0.0000000E+000	0.0000000E+000	0.0000000E+000	-66.2269	0.0000000E+000	0.0000000E+000	0.0000000E+000	-23.7731	0.0000000E+000	0.0000000E+000	0.0000000E+000	23.7731	2.27019	66.2269	-0.000143595
[...]
2519.19	7.47618	13.4021	15.3463	-60.8456	1098.34	-0.000227702	-0.457472	4.71396	3.5952	3	38	0.00641184	0.00041781	0	-0.0947136	0.993036	0.402926	18.3219	2.53333e-05	1.84486e-05	3.53986e-05	1.67532e-05	2.53558e-05	2.41188e-05	0.639385	0.176181	7.67536	1.68777e-06	1.01775e-06	1.14931e-06	6.69125e-07	6.88906e-07	6.55294e-07	0.0317447	0.0569068	0.0651622	60.8456	3595.2	2005.53	4116.75	-29.1544	0.0000000E+000	0.0000000E+000	0.0000000E+000	29.1544	0.0000000E+000	0.0000000E+000	0.0000000E+000	-29.1544	0.0000000E+000	0.0000000E+000	0.0000000E+000	-60.8456	0.0000000E+000	0.0000000E+000	0.0000000E+000	60.8456	0.557836	29.1544	-0.000139585
126.171	77.0381	103.116	128.716	-53.2364	1113.19	-0.000214803	-0.453505	12.2331	7.85095	3	39	0.0066201	5.1432e-05	0	-0.0965702	1.02092	0.653809	17.8937	3.47285e-05	1.94111e-05	3.33914e-05	2.34106e-05	1.32614e-05	2.65764e-05	1.71548	0.897962	28.8244	4.4415e-07	1.69832e-07	3.61069e-07	4.34897e-07	2.78315e-07	2.8439e-07	0.0046499	0.00622389	0.00776907	53.2364	7850.95	5865.48	9800.07	-36.7636	0.0000000E+000	0.0000000E+000	0.0000000E+000	36.7636	0.0000000E+000	0.0000000E+000	0.0000000E+000	-36.7636	0.0000000E+000	0.0000000E+000	0.0000000E+000	-53.2364	0.0000000E+000	0.0000000E+000	0.0000000E+000	53.2364	0.747104	36.7636	-0.000137836
6.31569	430.935	353.301	557.249	-39.3465	1127.88	-0.000226463	-0.453424	71.3272	28.6712	3	40	0.00657439	1.17979e-05	0	-0.098398	1.43501	0.870412	23.3626	4.02911e-05	3.60473e-05	4.75632e-05	2.08933e-05	3.93987e-05	3.46013e-05	4.70886	11.1179	17.9853	4.6262e-07	1.64223e-07	1.47767e-07	1.36811e-07	8.26463e-08	8.31057e-08	0.00138776	0.00113775	0.00179453	39.3465	28671.2	34971.4	45222.1	-50.6535	0.0000000E+000	0.0000000E+000	0.0000000E+000	50.6535	0.0000000E+000	0.0000000E+000	0.0000000E+000	-50.6535	0.0000000E+000	0.0000000E+000	0.0000000E+000	-39.3465	0.0000000E+000	0.0000000E+000	0.0000000E+000	39.3465	1.21974	50.6535	-0.000171998
0.316193	1194.15	142.253	1202.59	-6.79337	1221.59	-0.00021364	-0.451503	3538.4	49.5103	3	40	0.00659054	5.4803e-06	0	-0.110149	0.279102	0.110086	4.39488	5.30543e-06	7.70406e-06	7.80867e-06	6.41019e-06	6.95082e-06	6.409e-06	19.5897	15.4869	29.6702	6.78453e-07	4.63127e-07	2.46776e-07	2.03598e-07	2.68342e-07	4.11897e-07	0.000825702	9.8362e-05	0.00083154	6.79337	49510.3	415615	418553	-83.2066	0.0000000E+000	0.0000000E+000	0.0000000E+000	83.2066	0.0000000E+000	0.0000000E+000	0.0000000E+000	-83.2066	0.0000000E+000	0.0000000E+000	0.0000000E+000	-6.79337	0.0000000E+000	0.0000000E+000	0.0000000E+000	6.79337	8.39452	83.2066	-0.00245915
0.0999518	1227.39	51.0567	1228.45	-2.38201	1426.17	-0.000211045	-0.447434	31187.2	53.8726	3	40	0.00658569	5.36098e-06	0	-0.135662	0.207218	0.10771	2.57112	4.25615e-06	9.02554e-06	4.04129e-06	4.19952e-06	3.64687e-06	3.36304e-06	12.9652	8.05302	33.108	2.4675e-07	1.95669e-07	1.68909e-07	3.52978e-07	1.85752e-07	3.87387e-07	0.000813331	3.38329e-05	0.000814035	2.38201	53872.7	1.29508e+06	1.2962e+06	-87.618	0.0000000E+000	0.0000000E+000	0.0000000E+000	87.618	0.0000000E+000	0.0000000E+000	0.0000000E+000	-87.618	0.0000000E+000	0.0000000E+000	0.0000000E+000	-2.38201	0.0000000E+000	0.0000000E+000	0.0000000E+000	2.38201	24.0397	87.618	-0.00763041