Folder: Thesis/Python/Data/RDE (part 19)

File: 240223-OCV-EIS-Fe2Fe3_5mM-HCl1M-2000RPM-Ag_AgCl_BLF8-GC-RDE-1minRestVSEoc-3ppf-14p1mVAmplitude_04_PEIS_C15.mpt
EC-Lab ASCII FILE
Nb header lines : 67

Potentio Electrochemical Impedance Spectroscopy

Run on channel : 15 (SN 19485)
User :
Electrode connection : standard
Potential control : Ewe
Ewe ctrl range : min = -1.00 V, max = 1.00 V
Ewe,I filtering : 50 kHz
Safety Limits :
	Do not start on E overload
Channel : Floating
Acquisition started on : 02/23/2024 14:14:06.635
Loaded Setting File :  NONE
Saved on :
	File : 240223-OCV-EIS-Fe2Fe3_5mM-HCl1M-2000RPM-Ag_AgCl_BLF8-GC-RDE-1minRestVSEoc-3ppf-14p1mVAmplitude_04_PEIS_C15.mpr
	Directory : C:\Data\mathias\RDE-RPM-variation\
	Host : 192.168.0.1
Device : VMP-300 (SN 0826)
Address : USB
EC-Lab for windows v11.52 (software)
Internet server v11.52 (firmware)
Command interpretor v11.52 (firmware)
Electrode material :
Initial state :
Electrolyte :
Comments :
Cable : special
Reference electrode : SCE Saturated Calomel Electrode (0.241 V)
Electrode surface area : 0.001 cm²
Characteristic mass : 0.001 g
Equivalent Weight : 0.000 g/eq.
Density : 0.000 g/cm3
Volume (V) : 0.001 cm³
Record EIS quality indicators
Cycle Definition : Charge/Discharge alternance
Mode                Single sine
E (V)               0.0000
vs.                 Eoc
tE (h:m:s)          0:01:0.0000
record              0
dI                  0.000
unit dI             mA
dt (s)              0.000
fi                  1.000
unit fi             MHz
ff                  100.000
unit ff             mHz
Nd                  10
Points              per decade
spacing             Logarithmic
Va (mV)             14.1
pw                  0.10
Na                  3
corr                0
E range min (V)     -1.000
E range max (V)     1.000
I Range             Auto
Bandwidth           8
nc cycles           0
goto Ns'            0
nr cycles           0
inc. cycle          1

freq/Hz	Re(Z)/Ohm	-Im(Z)/Ohm	|Z|/Ohm	Phase(Z)/deg	time/s	<Ewe>/V	<I>/mA	Cs/µF	Cp/µF	cycle number	I Range	|Ewe|/V	|I|/A	Ns	(Q-Qo)/mA.h	THD Ewe/%	NSD Ewe/%	NSR Ewe/%	|Ewe h2|/V	|Ewe h3|/V	|Ewe h4|/V	|Ewe h5|/V	|Ewe h6|/V	|Ewe h7|/V	THD I/%	NSD I/%	NSR I/%	|I h2|/A	|I h3|/A	|I h4|/A	|I h5|/A	|I h6|/A	|I h7|/A	Re(Y)/Ohm-1	Im(Y)/Ohm-1	|Y|/Ohm-1	Phase(Y)/deg	Re(C)/nF	Im(C)/nF	|C|/nF	Phase(C)/deg	Re(M)	Im(M)	|M|	Phase(M)/deg	Re(Permittivity)	Im(Permittivity)	|Permittivity|	Phase(Permittivity)/deg	Re(Resistivity)/Ohm.cm	Im(Resistivity)/Ohm.cm	|Resistivity|/Ohm.cm	Phase(Resistivity)/deg	Re(Conductivity)/mS/cm	Im(Conductivity)/mS/cm	|Conductivity|/mS/cm	Phase(Conductivity)/deg	Tan(Delta)	Loss Angle(Delta)/deg	dq/mA.h
1.00002e+06	3.5515	4.08682	5.41435	-49.0089	605.796	0.459681	-0.0123393	0.0389428	0.0221873	1	38	0.01116	0.00206119	0	-6.69802e-06	-1	-1	-1	0	0	0	0	0	0	-1	-1	-1	0	0	0	0	0	0	0.121149	0.13941	0.184694	49.0089	22.1873	19.281	29.3945	-40.9911	0.0000000E+000	0.0000000E+000	0.0000000E+000	40.9911	0.0000000E+000	0.0000000E+000	0.0000000E+000	-40.9911	0.0000000E+000	0.0000000E+000	0.0000000E+000	-49.0089	0.0000000E+000	0.0000000E+000	0.0000000E+000	49.0089	0.869013	40.9911	-6.69802e-06
316230	3.46255	1.34944	3.71621	-21.292	611.397	0.459686	-0.00369055	0.372962	0.0491778	1	38	0.0145861	0.003925	0	-3.08655e-05	-1	-1	-1	0	0	0	0	0	0	-1	-1	-1	0	0	0	0	0	0	0.250724	0.097713	0.269091	21.292	49.1778	126.186	135.431	-68.708	0.0000000E+000	0.0000000E+000	0.0000000E+000	68.708	0.0000000E+000	0.0000000E+000	0.0000000E+000	-68.708	0.0000000E+000	0.0000000E+000	0.0000000E+000	-21.292	0.0000000E+000	0.0000000E+000	0.0000000E+000	21.292	2.56592	68.708	-1.03864e-05
100004	3.43912	1.02821	3.58953	-16.6453	617.135	0.45969	-0.00398472	1.54783	0.127002	1	38	0.0145756	0.00406057	0	-2.13955e-05	0.489952	0.170335	8.79135	3.92396e-05	1.68913e-05	3.11971e-05	1.92017e-05	2.33928e-05	2.45758e-05	0.0596086	0.0308196	0.710891	1.74324e-06	1.31853e-06	6.58904e-07	2.02089e-07	3.21408e-07	5.11409e-07	0.266914	0.0798006	0.278588	16.6453	127.002	424.791	443.37	-73.3547	0.0000000E+000	0.0000000E+000	0.0000000E+000	73.3547	0.0000000E+000	0.0000000E+000	0.0000000E+000	-73.3547	0.0000000E+000	0.0000000E+000	0.0000000E+000	-16.6453	0.0000000E+000	0.0000000E+000	0.0000000E+000	16.6453	3.34476	73.3547	-3.56522e-06
31621.1	3.62732	2.06028	4.1716	-29.5961	622.871	0.459674	-0.00328651	2.44295	0.595887	1	38	0.0147242	0.00352963	0	-3.57677e-05	0.416104	0.240462	8.96979	1.52758e-05	2.88292e-05	3.05002e-05	2.07174e-05	2.03223e-05	2.77056e-05	0.0636143	0.0459397	0.82024	4.71905e-07	1.51093e-06	1.06928e-06	7.39401e-07	7.62454e-07	3.56646e-07	0.20844	0.118392	0.239716	29.5961	595.887	1049.12	1206.53	-60.4039	0.0000000E+000	0.0000000E+000	0.0000000E+000	60.4039	0.0000000E+000	0.0000000E+000	0.0000000E+000	-60.4039	0.0000000E+000	0.0000000E+000	0.0000000E+000	-29.5961	0.0000000E+000	0.0000000E+000	0.0000000E+000	29.5961	1.76059	60.4039	-2.7241e-06
10002.2	4.2295	5.55229	6.97973	-52.7014	628.607	0.459719	-0.00391218	2.86584	1.81351	1	38	0.0145169	0.00207987	0	-3.36271e-05	0.388228	0.192982	8.88291	1.68521e-05	2.65169e-05	1.49853e-05	2.01135e-05	1.95072e-05	2.64656e-05	0.20044	0.0384818	1.39108	3.75162e-06	7.75341e-07	6.61999e-07	1.15843e-06	4.83306e-07	4.18134e-07	0.0868184	0.113971	0.143272	52.7014	1813.51	1381.45	2279.74	-37.2986	0.0000000E+000	0.0000000E+000	0.0000000E+000	37.2986	0.0000000E+000	0.0000000E+000	0.0000000E+000	-37.2986	0.0000000E+000	0.0000000E+000	0.0000000E+000	-52.7014	0.0000000E+000	0.0000000E+000	0.0000000E+000	52.7014	0.761758	37.2986	5.5657e-07
3163.04	6.32347	15.3878	16.6364	-67.6602	634.167	0.459571	-0.0056494	3.26994	2.79752	1	38	0.0126809	0.000762239	0	-3.87306e-05	0.611216	0.262594	10.284	2.08168e-05	2.84392e-05	3.74833e-05	2.2693e-05	3.86877e-05	2.97807e-05	0.718538	0.194341	3.81887	4.78485e-06	2.23875e-06	4.15257e-07	1.19863e-06	2.24329e-07	4.17946e-07	0.0228474	0.0555978	0.0601092	67.6602	2797.52	1149.62	3024.52	-22.3398	0.0000000E+000	0.0000000E+000	0.0000000E+000	22.3398	0.0000000E+000	0.0000000E+000	0.0000000E+000	-22.3398	0.0000000E+000	0.0000000E+000	0.0000000E+000	-67.6602	0.0000000E+000	0.0000000E+000	0.0000000E+000	67.6602	0.410942	22.3398	-1.22104e-06
999.682	13.3047	41.4727	43.5546	-72.2134	640.174	0.459558	-0.000864263	3.83881	3.48059	1	39	0.0144841	0.00033255	0	-4.45573e-05	0.480006	0.213255	8.69866	2.11091e-05	4.06121e-05	2.83003e-05	2.34625e-05	2.43893e-05	1.4746e-05	1.18246	0.086541	3.91247	3.2635e-06	1.93462e-06	2.44409e-07	8.2224e-07	3.51281e-07	2.53436e-07	0.00701356	0.0218623	0.0229597	72.2134	3480.59	1116.6	3655.31	-17.7866	0.0000000E+000	0.0000000E+000	0.0000000E+000	17.7866	0.0000000E+000	0.0000000E+000	0.0000000E+000	-17.7866	0.0000000E+000	0.0000000E+000	0.0000000E+000	-72.2134	0.0000000E+000	0.0000000E+000	0.0000000E+000	72.2134	0.320807	17.7866	4.96141e-08
316.316	35.1323	107.141	112.754	-71.8453	645.701	0.459622	-0.00045908	4.69616	4.24024	1	39	0.0133196	0.000118129	0	-4.50835e-05	0.457126	0.226959	9.72058	1.4888e-05	2.37051e-05	2.79687e-05	2.41349e-05	2.38986e-05	2.31837e-05	1.04076	0.318093	11.4146	7.63596e-07	5.26285e-07	2.19046e-07	3.27681e-07	5.0187e-07	3.20648e-07	0.00276339	0.00842736	0.00886886	71.8453	4240.24	1390.4	4462.38	-18.1547	0.0000000E+000	0.0000000E+000	0.0000000E+000	18.1547	0.0000000E+000	0.0000000E+000	0.0000000E+000	-18.1547	0.0000000E+000	0.0000000E+000	0.0000000E+000	-71.8453	0.0000000E+000	0.0000000E+000	0.0000000E+000	71.8453	0.327907	18.1547	-1.62815e-07
[...]
9.99682	956.698	1205.15	1538.72	-51.5561	662.49	0.459581	-7.79059e-05	13.2104	8.10364	1	41	0.0131888	8.57125e-06	0	-4.54642e-05	1.0469	0.545488	19.1093	5.49427e-05	4.29383e-05	4.50117e-05	7.20343e-05	5.94606e-05	3.94698e-05	1.03209	0.184869	5.85395	6.55908e-08	4.07374e-08	1.34536e-08	3.74721e-08	1.43461e-08	4.73716e-09	0.000404068	0.000509005	0.00064989	51.5561	8103.64	6432.99	10346.6	-38.4439	0.0000000E+000	0.0000000E+000	0.0000000E+000	38.4439	0.0000000E+000	0.0000000E+000	0.0000000E+000	-38.4439	0.0000000E+000	0.0000000E+000	0.0000000E+000	-51.5561	0.0000000E+000	0.0000000E+000	0.0000000E+000	51.5561	0.793839	38.4439	-5.73613e-08
3.16296	2277.61	1477.47	2714.85	-32.9712	670.932	0.459598	-7.68876e-05	34.0571	10.0868	1	41	0.0131737	4.85245e-06	0	-4.55821e-05	0.471124	0.261873	8.46163	1.59612e-05	2.93749e-05	2.87333e-05	3.21384e-05	1.14116e-05	8.75453e-06	0.798984	0.114715	4.84832	3.3526e-08	1.55732e-08	5.38563e-09	6.92792e-09	3.63824e-09	2.72789e-09	0.00030902	0.00020046	0.000368344	32.9712	10086.8	15549.4	18534.5	-57.0288	0.0000000E+000	0.0000000E+000	0.0000000E+000	57.0288	0.0000000E+000	0.0000000E+000	0.0000000E+000	-57.0288	0.0000000E+000	0.0000000E+000	0.0000000E+000	-32.9712	0.0000000E+000	0.0000000E+000	0.0000000E+000	32.9712	1.54156	57.0288	2.00645e-08
1.00006	3392.19	996.238	3535.46	-16.3668	694.68	0.459598	-8.63094e-05	159.746	12.6843	1	42	0.0131737	3.72617e-06	0	-4.63579e-05	0.262156	0.159104	4.56519	1.3214e-05	8.97443e-06	1.10672e-05	1.52581e-05	1.75062e-05	1.23412e-05	0.727455	0.0447241	1.31703	2.39157e-08	1.20166e-08	6.58361e-10	4.11495e-09	6.21938e-10	5.56222e-10	0.000271387	7.97026e-05	0.000282849	16.3668	12684.3	43190	45014	-73.6332	0.0000000E+000	0.0000000E+000	0.0000000E+000	73.6332	0.0000000E+000	0.0000000E+000	0.0000000E+000	-73.6332	0.0000000E+000	0.0000000E+000	0.0000000E+000	-16.3668	0.0000000E+000	0.0000000E+000	0.0000000E+000	16.3668	3.405	73.6332	-3.27304e-07
0.316193	3870.36	500.955	3902.64	-7.37501	760.476	0.4596	-8.29523e-05	1004.78	16.5558	1	42	0.0131687	3.37429e-06	0	-4.73184e-05	0.148752	0.05352	2.50132	4.84912e-06	1.06135e-05	7.23186e-06	9.68051e-06	5.44917e-06	3.26352e-06	0.736371	0.0364727	1.45394	2.25105e-08	1.01304e-08	2.37215e-10	2.77485e-09	3.293e-10	2.42548e-10	0.000254117	3.28913e-05	0.000256237	7.37501	16555.8	127909	128976	-82.625	0.0000000E+000	0.0000000E+000	0.0000000E+000	82.625	0.0000000E+000	0.0000000E+000	0.0000000E+000	-82.625	0.0000000E+000	0.0000000E+000	0.0000000E+000	-7.37501	0.0000000E+000	0.0000000E+000	0.0000000E+000	7.37501	7.72595	82.625	-1.75185e-07
0.0999518	4078.5	221.19	4084.49	-3.10429	965.058	0.459584	-8.3145e-05	7198.88	21.1115	1	42	0.0131732	3.22517e-06	0	-5.15532e-05	0.11125	0.0677342	1.46942	3.39305e-06	1.05429e-05	4.43112e-06	6.04629e-06	3.85284e-06	3.10147e-06	0.77158	0.0376047	1.41874	2.28966e-08	9.33667e-09	3.36198e-10	2.75798e-09	1.18679e-10	1.57941e-10	0.000244469	1.32583e-05	0.000244829	3.10429	21111.5	389273	389845	-86.8957	0.0000000E+000	0.0000000E+000	0.0000000E+000	86.8957	0.0000000E+000	0.0000000E+000	0.0000000E+000	-86.8957	0.0000000E+000	0.0000000E+000	0.0000000E+000	-3.10429	0.0000000E+000	0.0000000E+000	0.0000000E+000	3.10429	18.4389	86.8957	-2.61335e-07

File: 240223-OCV-EIS-Fe2Fe3_5mM-HCl1M-2000RPM-Ag_AgCl_BLF8-GC-RDE-1minRestVSEoc-3ppf-14p1mVAmplitude_05_OCV_C15.mpt
EC-Lab ASCII FILE
Nb header lines : 47

Open Circuit Voltage

Run on channel : 15 (SN 19485)
User :
Electrode connection : standard
Potential control : Ewe
Ewe ctrl range : min = -1.00 V, max = 1.00 V
Ewe,I filtering : 50 kHz
Safety Limits :
	Do not start on E overload
Channel : Floating
Acquisition started on : 02/23/2024 14:14:06.635
Loaded Setting File :  NONE
Saved on :
	File : 240223-OCV-EIS-Fe2Fe3_5mM-HCl1M-2000RPM-Ag_AgCl_BLF8-GC-RDE-1minRestVSEoc-3ppf-14p1mVAmplitude_05_OCV_C15.mpr
	Directory : C:\Data\mathias\RDE-RPM-variation\
	Host : 192.168.0.1
Device : VMP-300 (SN 0826)
Address : USB
EC-Lab for windows v11.52 (software)
Internet server v11.52 (firmware)
Command interpretor v11.52 (firmware)
Electrode material :
Initial state :
Electrolyte :
Comments :
Cable : special
Reference electrode : SCE Saturated Calomel Electrode (0.241 V)
Electrode surface area : 0.001 cm²
Characteristic mass : 0.001 g
Equivalent Weight : 0.000 g/eq.
Density : 0.000 g/cm3
Volume (V) : 0.001 cm³
Record EIS quality indicators
Cycle Definition : Charge/Discharge alternance
tR (h:m:s)          0:01:0.0000
dER/dt (mV/h)       1.0
record              <Ewe>
dER (mV)            0.00
dtR (s)             0.5000
E range min (V)     -1.000
E range max (V)     1.000

mode	error	time/s	<Ewe/V>
3	0	965.558	0.461047
3	0	966.058	0.46015
3	0	966.558	0.459975
3	0	967.058	0.459915
3	0	967.558	0.459886
3	0	968.058	0.459873
3	0	968.558	0.459863
3	0	969.058	0.459853
3	0	969.558	0.459851
3	0	970.058	0.459848
3	0	970.558	0.459845
3	0	971.058	0.459841
3	0	971.558	0.459839
3	0	972.058	0.459838
3	0	972.558	0.459835
3	0	973.058	0.459834
3	0	973.558	0.459832
3	0	974.058	0.459833
3	0	974.558	0.45983
3	0	975.058	0.459828
3	0	975.558	0.459828
3	0	976.058	0.459827
3	0	976.558	0.459828
3	0	977.058	0.459831
3	0	977.558	0.459829
3	0	978.058	0.459829
3	0	978.558	0.459829
3	0	979.058	0.459828
3	0	979.558	0.459829
3	0	980.058	0.459827
3	0	980.558	0.459828
3	0	981.058	0.459827
3	0	981.558	0.459829
3	0	982.058	0.459826
3	0	982.558	0.459825
3	0	983.058	0.459826
3	0	983.558	0.459823
3	0	984.058	0.45982
3	0	984.558	0.45982
3	0	985.058	0.459823
3	0	985.558	0.459822
3	0	986.058	0.45982
3	0	986.558	0.459822
3	0	987.058	0.45982
3	0	987.558	0.459819
3	0	988.058	0.459818
3	0	988.558	0.459819
3	0	989.058	0.45982
3	0	989.558	0.459821
3	0	990.058	0.459821
3	0	990.558	0.459821
3	0	991.058	0.459821
3	0	991.558	0.459821
3	0	992.058	0.459821
3	0	992.558	0.459821
3	0	993.058	0.459823
3	0	993.558	0.459822
3	0	994.058	0.459822
3	0	994.558	0.459823
3	0	995.058	0.459827
3	0	995.558	0.459829
3	0	996.058	0.459828
3	0	996.558	0.459829
3	0	997.058	0.459827
3	0	997.558	0.459826
3	0	998.058	0.459826
3	0	998.558	0.459826
3	0	999.058	0.459827
3	0	999.558	0.45983
3	0	1000.06	0.45983
3	0	1000.56	0.459829
3	0	1001.06	0.459828
3	0	1001.56	0.45983
3	0	1002.06	0.459828
3	0	1002.56	0.459828
3	0	1003.06	0.459829
3	0	1003.56	0.459828
3	0	1004.06	0.459827
3	0	1004.56	0.459827
3	0	1005.06	0.459825
3	0	1005.56	0.459823
3	0	1006.06	0.459821
3	0	1006.56	0.459819
3	0	1007.06	0.459821
3	0	1007.56	0.459819
3	0	1008.06	0.459821
3	0	1008.56	0.45982
3	0	1009.06	0.45982
3	0	1009.56	0.45982
3	0	1010.06	0.459821
3	0	1010.56	0.459821
3	0	1011.06	0.459819
3	0	1011.56	0.45982
3	0	1012.06	0.459819
3	0	1012.56	0.459819
3	0	1013.06	0.459818
3	0	1013.56	0.45982
3	0	1014.06	0.459821
3	0	1014.56	0.459822
3	0	1015.06	0.45982
3	0	1015.56	0.459818
3	0	1016.06	0.459818
3	0	1016.56	0.459818
3	0	1017.06	0.459817
3	0	1017.56	0.459816
3	0	1018.06	0.459816
3	0	1018.56	0.459815
3	0	1019.06	0.459814
3	0	1019.56	0.459811
3	0	1020.06	0.459811
3	0	1020.56	0.459813
3	0	1021.06	0.459811
3	0	1021.56	0.459812
3	0	1022.06	0.459812
3	0	1022.56	0.45981
3	0	1023.06	0.459812
3	0	1023.56	0.459809
3	0	1024.06	0.459812
3	0	1024.56	0.459809
3	0	1025.06	0.459811
3	0	1025.22	0.459811

File: 240223-OCV-EIS-Fe2Fe3_5mM-HCl1M-2000RPM-Ag_AgCl_BLF8-GC-RDE-1minRestVSEoc-3ppf-14p1mVAmplitude_06_PEIS_C15.mpt
EC-Lab ASCII FILE
Nb header lines : 67

Potentio Electrochemical Impedance Spectroscopy

Run on channel : 15 (SN 19485)
User :
Electrode connection : standard
Potential control : Ewe
Ewe ctrl range : min = -1.00 V, max = 1.00 V
Ewe,I filtering : 50 kHz
Safety Limits :
	Do not start on E overload
Channel : Floating
Acquisition started on : 02/23/2024 14:14:06.635
Loaded Setting File :  NONE
Saved on :
	File : 240223-OCV-EIS-Fe2Fe3_5mM-HCl1M-2000RPM-Ag_AgCl_BLF8-GC-RDE-1minRestVSEoc-3ppf-14p1mVAmplitude_06_PEIS_C15.mpr
	Directory : C:\Data\mathias\RDE-RPM-variation\
	Host : 192.168.0.1
Device : VMP-300 (SN 0826)
Address : USB
EC-Lab for windows v11.52 (software)
Internet server v11.52 (firmware)
Command interpretor v11.52 (firmware)
Electrode material :
Initial state :
Electrolyte :
Comments :
Cable : special
Reference electrode : SCE Saturated Calomel Electrode (0.241 V)
Electrode surface area : 0.001 cm²
Characteristic mass : 0.001 g
Equivalent Weight : 0.000 g/eq.
Density : 0.000 g/cm3
Volume (V) : 0.001 cm³
Record EIS quality indicators
Cycle Definition : Charge/Discharge alternance
Mode                Single sine
E (V)               0.0000
vs.                 Eoc
tE (h:m:s)          0:01:0.0000
record              0
dI                  0.000
unit dI             mA
dt (s)              0.000
fi                  1.000
unit fi             MHz
ff                  100.000
unit ff             mHz
Nd                  10
Points              per decade
spacing             Logarithmic
Va (mV)             14.1
pw                  0.10
Na                  3
corr                0
E range min (V)     -1.000
E range max (V)     1.000
I Range             Auto
Bandwidth           8
nc cycles           0
goto Ns'            0
nr cycles           0
inc. cycle          1

freq/Hz	Re(Z)/Ohm	-Im(Z)/Ohm	|Z|/Ohm	Phase(Z)/deg	time/s	<Ewe>/V	<I>/mA	Cs/µF	Cp/µF	cycle number	I Range	|Ewe|/V	|I|/A	Ns	(Q-Qo)/mA.h	THD Ewe/%	NSD Ewe/%	NSR Ewe/%	|Ewe h2|/V	|Ewe h3|/V	|Ewe h4|/V	|Ewe h5|/V	|Ewe h6|/V	|Ewe h7|/V	THD I/%	NSD I/%	NSR I/%	|I h2|/A	|I h3|/A	|I h4|/A	|I h5|/A	|I h6|/A	|I h7|/A	Re(Y)/Ohm-1	Im(Y)/Ohm-1	|Y|/Ohm-1	Phase(Y)/deg	Re(C)/nF	Im(C)/nF	|C|/nF	Phase(C)/deg	Re(M)	Im(M)	|M|	Phase(M)/deg	Re(Permittivity)	Im(Permittivity)	|Permittivity|	Phase(Permittivity)/deg	Re(Resistivity)/Ohm.cm	Im(Resistivity)/Ohm.cm	|Resistivity|/Ohm.cm	Phase(Resistivity)/deg	Re(Conductivity)/mS/cm	Im(Conductivity)/mS/cm	|Conductivity|/mS/cm	Phase(Conductivity)/deg	Tan(Delta)	Loss Angle(Delta)/deg	dq/mA.h
1.00002e+06	3.54873	4.07759	5.40557	-48.9669	1088.4	0.459684	-0.0121438	0.0390309	0.0222091	1	38	0.0111452	0.0020618	0	-2.94151e-06	-1	-1	-1	0	0	0	0	0	0	-1	-1	-1	0	0	0	0	0	0	0.121448	0.139547	0.184994	48.9669	22.2091	19.3287	29.4422	-41.0331	0.0000000E+000	0.0000000E+000	0.0000000E+000	41.0331	0.0000000E+000	0.0000000E+000	0.0000000E+000	-41.0331	0.0000000E+000	0.0000000E+000	0.0000000E+000	-48.9669	0.0000000E+000	0.0000000E+000	0.0000000E+000	48.9669	0.870302	41.0331	-2.94151e-06
316230	3.45957	1.35381	3.71503	-21.3716	1094.01	0.459678	-0.00345409	0.371756	0.0493688	1	38	0.0145707	0.00392209	0	-5.11517e-06	-1	-1	-1	0	0	0	0	0	0	-1	-1	-1	0	0	0	0	0	0	0.250668	0.0980924	0.269177	21.3716	49.3688	126.158	135.474	-68.6284	0.0000000E+000	0.0000000E+000	0.0000000E+000	68.6284	0.0000000E+000	0.0000000E+000	0.0000000E+000	-68.6284	0.0000000E+000	0.0000000E+000	0.0000000E+000	-21.3716	0.0000000E+000	0.0000000E+000	0.0000000E+000	21.3716	2.55542	68.6284	7.74697e-06
100004	3.43426	1.02578	3.58419	-16.6304	1099.74	0.459659	-0.00242629	1.55149	0.127081	1	38	0.0145804	0.00406799	0	-7.08988e-07	0.439106	0.30371	8.79513	2.49614e-05	1.42855e-05	2.8211e-05	1.39294e-05	3.27412e-05	2.84953e-05	0.0669741	0.0287484	0.709913	1.84175e-06	1.48854e-06	5.85714e-07	7.4375e-07	5.65996e-07	4.91672e-07	0.267333	0.07985	0.279003	16.6304	127.081	425.458	444.031	-73.3696	0.0000000E+000	0.0000000E+000	0.0000000E+000	73.3696	0.0000000E+000	0.0000000E+000	0.0000000E+000	-73.3696	0.0000000E+000	0.0000000E+000	0.0000000E+000	-16.6304	0.0000000E+000	0.0000000E+000	0.0000000E+000	16.6304	3.34794	73.3696	5.49558e-06
31621.1	3.61457	2.08056	4.17059	-29.9249	1105.48	0.459661	-0.00285082	2.41915	0.602042	1	38	0.0146495	0.00351256	0	-5.95111e-06	0.413873	0.438365	8.8265	1.35322e-05	3.58267e-05	1.36309e-05	2.00024e-05	2.61212e-05	1.88326e-05	0.0725357	0.0442027	0.803508	7.72414e-07	1.57704e-06	1.07052e-06	6.1749e-07	5.05631e-07	1.03146e-06	0.207807	0.119615	0.239774	29.9249	602.042	1045.93	1206.83	-60.0751	0.0000000E+000	0.0000000E+000	0.0000000E+000	60.0751	0.0000000E+000	0.0000000E+000	0.0000000E+000	-60.0751	0.0000000E+000	0.0000000E+000	0.0000000E+000	-29.9249	0.0000000E+000	0.0000000E+000	0.0000000E+000	29.9249	1.73731	60.0751	-7.50643e-07
10002.2	4.21557	5.62298	7.02773	-53.1409	1111.21	0.459675	-0.00273916	2.82981	1.81159	1	38	0.0146131	0.00207936	0	-1.50349e-05	0.466761	0.312627	8.81059	3.10233e-05	3.70931e-05	3.19926e-05	5.59072e-06	1.17493e-05	2.24814e-05	0.202807	0.0601889	1.42633	3.71113e-06	7.71223e-07	5.92624e-07	1.1609e-06	8.00518e-07	7.10032e-07	0.0853546	0.113851	0.142293	53.1409	1811.59	1358.16	2264.17	-36.8591	0.0000000E+000	0.0000000E+000	0.0000000E+000	36.8591	0.0000000E+000	0.0000000E+000	0.0000000E+000	-36.8591	0.0000000E+000	0.0000000E+000	0.0000000E+000	-53.1409	0.0000000E+000	0.0000000E+000	0.0000000E+000	53.1409	0.749704	36.8591	-6.65711e-07
3163.04	6.32973	15.6192	16.8531	-67.9396	1116.77	0.459544	-0.00353238	3.22148	2.76705	1	38	0.0126858	0.000752728	0	-2.19679e-05	0.573925	0.360395	10.2124	3.08043e-05	1.57901e-05	4.26894e-05	2.88877e-05	1.95298e-05	2.19755e-05	0.696717	0.132883	3.85121	4.34884e-06	2.45508e-06	5.03614e-07	1.25217e-06	3.9629e-07	5.66855e-07	0.0222858	0.0549923	0.0593364	67.9396	2767.05	1121.35	2985.63	-22.0604	0.0000000E+000	0.0000000E+000	0.0000000E+000	22.0604	0.0000000E+000	0.0000000E+000	0.0000000E+000	-22.0604	0.0000000E+000	0.0000000E+000	0.0000000E+000	-67.9396	0.0000000E+000	0.0000000E+000	0.0000000E+000	67.9396	0.405252	22.0604	-7.42341e-07
999.682	13.4331	42.1342	44.2238	-72.3168	1122.78	0.45957	-0.000633898	3.77854	3.4299	1	39	0.0144792	0.000327408	0	-2.77091e-05	0.561514	0.262038	8.51861	3.48562e-05	5.08793e-05	2.91039e-05	2.47093e-05	2.16742e-05	1.68739e-05	1.18033	0.105336	3.8362	3.17254e-06	2.03107e-06	1.35594e-07	7.58839e-07	2.56668e-07	2.20594e-07	0.00686856	0.0215439	0.0226123	72.3168	3429.9	1093.51	3600	-17.6832	0.0000000E+000	0.0000000E+000	0.0000000E+000	17.6832	0.0000000E+000	0.0000000E+000	0.0000000E+000	-17.6832	0.0000000E+000	0.0000000E+000	0.0000000E+000	-72.3168	0.0000000E+000	0.0000000E+000	0.0000000E+000	72.3168	0.318818	17.6832	-2.92848e-07
316.316	35.3123	108.854	114.439	-72.0269	1128.31	0.459591	-0.000566993	4.62226	4.18215	1	39	0.0133268	0.000116454	0	-2.80396e-05	0.588825	0.237528	9.29942	2.06776e-05	3.47486e-05	3.03329e-05	2.15086e-05	3.2752e-05	2.47317e-05	1.02213	0.237774	11.1507	8.96208e-07	4.21041e-07	2.47194e-07	3.35293e-07	3.44153e-07	1.98021e-07	0.00269638	0.00831189	0.00873831	72.0269	4182.15	1356.69	4396.7	-17.9731	0.0000000E+000	0.0000000E+000	0.0000000E+000	17.9731	0.0000000E+000	0.0000000E+000	0.0000000E+000	-17.9731	0.0000000E+000	0.0000000E+000	0.0000000E+000	-72.0269	0.0000000E+000	0.0000000E+000	0.0000000E+000	72.0269	0.3244	17.9731	-2.23295e-08
[...]
9.99682	970.936	1232.13	1568.71	-51.7613	1145.1	0.459556	-8.18316e-05	12.9212	7.97128	1	41	0.0132079	8.41961e-06	0	-2.89613e-05	1.06974	0.56604	19.2147	2.25422e-05	5.82809e-05	0.000100204	3.88246e-05	3.68994e-05	4.28105e-05	0.896043	0.15943	5.90289	5.80288e-08	3.4238e-08	1.56662e-08	2.55429e-08	1.059e-08	6.63635e-09	0.000394552	0.000500691	0.000637466	51.7613	7971.28	6281.5	10148.8	-38.2387	0.0000000E+000	0.0000000E+000	0.0000000E+000	38.2387	0.0000000E+000	0.0000000E+000	0.0000000E+000	-38.2387	0.0000000E+000	0.0000000E+000	0.0000000E+000	-51.7613	0.0000000E+000	0.0000000E+000	0.0000000E+000	51.7613	0.788016	38.2387	-6.14281e-08
3.16296	2322.88	1516.32	2773.98	-33.1355	1153.54	0.459562	-7.8786e-05	33.1846	9.91538	1	41	0.0131861	4.75349e-06	0	-2.91484e-05	0.41856	0.276196	8.49004	2.26735e-05	1.95887e-05	1.48999e-05	2.62473e-05	2.43887e-05	1.81683e-05	0.842803	0.164099	4.91928	3.456e-08	1.62271e-08	2.06168e-09	1.01717e-08	3.16975e-09	3.58662e-09	0.000301869	0.000197053	0.000360492	33.1355	9915.38	15189.6	18139.4	-56.8645	0.0000000E+000	0.0000000E+000	0.0000000E+000	56.8645	0.0000000E+000	0.0000000E+000	0.0000000E+000	-56.8645	0.0000000E+000	0.0000000E+000	0.0000000E+000	-33.1355	0.0000000E+000	0.0000000E+000	0.0000000E+000	33.1355	1.53192	56.8645	-1.64812e-08
1.00006	3462.5	1026.37	3611.42	-16.5112	1177.29	0.459588	-7.66057e-05	155.056	12.524	1	42	0.0131691	3.64651e-06	0	-2.96801e-05	0.193046	0.121385	4.59384	1.0848e-05	9.50296e-06	8.8196e-06	1.35683e-05	6.99289e-06	8.0723e-06	0.735116	0.0608162	1.37576	2.38928e-08	1.13844e-08	7.44808e-10	4.08475e-09	4.40169e-10	5.4234e-10	0.000265481	7.86953e-05	0.000276899	16.5112	12524	42250	44067.1	-73.4888	0.0000000E+000	0.0000000E+000	0.0000000E+000	73.4888	0.0000000E+000	0.0000000E+000	0.0000000E+000	-73.4888	0.0000000E+000	0.0000000E+000	0.0000000E+000	-16.5112	0.0000000E+000	0.0000000E+000	0.0000000E+000	16.5112	3.37353	73.4888	-2.91499e-07
0.316193	3954.68	515.925	3988.19	-7.43279	1243.09	0.459574	-8.01018e-05	975.621	16.3268	1	42	0.0131682	3.30181e-06	0	-3.11427e-05	0.177212	0.0636037	2.5402	8.54162e-06	1.37582e-05	5.62542e-06	9.12747e-06	8.73176e-06	8.16041e-06	0.748141	0.0350573	1.48694	2.23396e-08	1.01218e-08	2.76411e-10	2.90779e-09	2.308e-10	2.27986e-10	0.000248633	3.24365e-05	0.00025074	7.43279	16326.8	125149	126209	-82.5672	0.0000000E+000	0.0000000E+000	0.0000000E+000	82.5672	0.0000000E+000	0.0000000E+000	0.0000000E+000	-82.5672	0.0000000E+000	0.0000000E+000	0.0000000E+000	-7.43279	0.0000000E+000	0.0000000E+000	0.0000000E+000	7.43279	7.66522	82.5672	-1.37907e-07
0.0999518	4164.12	229.031	4170.42	-3.14816	1447.67	0.459578	-8.39613e-05	6952.4	20.9684	1	42	0.0131673	3.15731e-06	0	-3.7187e-05	0.118992	0.0632156	1.46641	3.03337e-06	7.31657e-06	3.30144e-06	1.18411e-05	2.59708e-06	3.73447e-06	0.78883	0.038168	1.41986	2.28482e-08	9.59909e-09	1.42704e-10	2.43391e-09	3.43338e-10	1.34572e-10	0.000239422	1.31685e-05	0.000239784	3.14816	20968.4	381236	381812	-86.8518	0.0000000E+000	0.0000000E+000	0.0000000E+000	86.8518	0.0000000E+000	0.0000000E+000	0.0000000E+000	-86.8518	0.0000000E+000	0.0000000E+000	0.0000000E+000	-3.14816	0.0000000E+000	0.0000000E+000	0.0000000E+000	3.14816	18.1815	86.8518	-1.9242e-06