Folder: Thesis/Python/Data/RDE (part 13)

File: 240223-OCV-EIS-Fe2Fe3_5mM-HCl1M-225RPM-Ag_AgCl_BLF8-GC-RDE-1minRestVSEoc-3ppf-14p1mVAmplitude_06_PEIS_C15.mpt
EC-Lab ASCII FILE
Nb header lines : 67

Potentio Electrochemical Impedance Spectroscopy

Run on channel : 15 (SN 19485)
User :
Electrode connection : standard
Potential control : Ewe
Ewe ctrl range : min = -1.00 V, max = 1.00 V
Ewe,I filtering : 50 kHz
Safety Limits :
	Do not start on E overload
Channel : Floating
Acquisition started on : 02/23/2024 15:54:32.363
Loaded Setting File :  NONE
Saved on :
	File : 240223-OCV-EIS-Fe2Fe3_5mM-HCl1M-225RPM-Ag_AgCl_BLF8-GC-RDE-1minRestVSEoc-3ppf-14p1mVAmplitude_06_PEIS_C15.mpr
	Directory : C:\Data\mathias\RDE-RPM-variation\
	Host : 192.168.0.1
Device : VMP-300 (SN 0826)
Address : USB
EC-Lab for windows v11.52 (software)
Internet server v11.52 (firmware)
Command interpretor v11.52 (firmware)
Electrode material :
Initial state :
Electrolyte :
Comments :
Cable : special
Reference electrode : SCE Saturated Calomel Electrode (0.241 V)
Electrode surface area : 0.001 cm²
Characteristic mass : 0.001 g
Equivalent Weight : 0.000 g/eq.
Density : 0.000 g/cm3
Volume (V) : 0.001 cm³
Record EIS quality indicators
Cycle Definition : Charge/Discharge alternance
Mode                Single sine
E (V)               0.0000
vs.                 Eoc
tE (h:m:s)          0:01:0.0000
record              0
dI                  0.000
unit dI             mA
dt (s)              0.000
fi                  1.000
unit fi             MHz
ff                  100.000
unit ff             mHz
Nd                  10
Points              per decade
spacing             Logarithmic
Va (mV)             14.1
pw                  0.10
Na                  3
corr                0
E range min (V)     -1.000
E range max (V)     1.000
I Range             Auto
Bandwidth           8
nc cycles           0
goto Ns'            0
nr cycles           0
inc. cycle          1

freq/Hz	Re(Z)/Ohm	-Im(Z)/Ohm	|Z|/Ohm	Phase(Z)/deg	time/s	<Ewe>/V	<I>/mA	Cs/µF	Cp/µF	cycle number	I Range	|Ewe|/V	|I|/A	Ns	(Q-Qo)/mA.h	THD Ewe/%	NSD Ewe/%	NSR Ewe/%	|Ewe h2|/V	|Ewe h3|/V	|Ewe h4|/V	|Ewe h5|/V	|Ewe h6|/V	|Ewe h7|/V	THD I/%	NSD I/%	NSR I/%	|I h2|/A	|I h3|/A	|I h4|/A	|I h5|/A	|I h6|/A	|I h7|/A	Re(Y)/Ohm-1	Im(Y)/Ohm-1	|Y|/Ohm-1	Phase(Y)/deg	Re(C)/nF	Im(C)/nF	|C|/nF	Phase(C)/deg	Re(M)	Im(M)	|M|	Phase(M)/deg	Re(Permittivity)	Im(Permittivity)	|Permittivity|	Phase(Permittivity)/deg	Re(Resistivity)/Ohm.cm	Im(Resistivity)/Ohm.cm	|Resistivity|/Ohm.cm	Phase(Resistivity)/deg	Re(Conductivity)/mS/cm	Im(Conductivity)/mS/cm	|Conductivity|/mS/cm	Phase(Conductivity)/deg	Tan(Delta)	Loss Angle(Delta)/deg	dq/mA.h
1.00002e+06	3.51504	4.08374	5.38818	-49.2801	1084.32	0.459387	-0.00922991	0.0389721	0.0223865	1	38	0.0111333	0.00206625	0	-4.35444e-06	-1	-1	-1	0	0	0	0	0	0	-1	-1	-1	0	0	0	0	0	0	0.121073	0.140661	0.185592	49.2801	22.3865	19.269	29.5373	-40.7199	0.0000000E+000	0.0000000E+000	0.0000000E+000	40.7199	0.0000000E+000	0.0000000E+000	0.0000000E+000	-40.7199	0.0000000E+000	0.0000000E+000	0.0000000E+000	-49.2801	0.0000000E+000	0.0000000E+000	0.0000000E+000	49.2801	0.86074	40.7199	-4.35444e-06
316230	3.43717	1.36134	3.69694	-21.6068	1089.92	0.459367	-0.0014134	0.3697	0.0501302	1	38	0.0145236	0.00392854	0	-5.32615e-06	-1	-1	-1	0	0	0	0	0	0	-1	-1	-1	0	0	0	0	0	0	0.251487	0.0996052	0.270494	21.6068	50.1302	126.571	136.136	-68.3932	0.0000000E+000	0.0000000E+000	0.0000000E+000	68.3932	0.0000000E+000	0.0000000E+000	0.0000000E+000	-68.3932	0.0000000E+000	0.0000000E+000	0.0000000E+000	-21.6068	0.0000000E+000	0.0000000E+000	0.0000000E+000	21.6068	2.52484	68.3932	-9.37595e-06
100004	3.41309	1.06769	3.57619	-17.3709	1095.65	0.459387	-4.30118e-05	1.49059	0.132864	1	38	0.014535	0.00406437	0	3.98619e-06	0.563404	0.216332	9.07574	2.50404e-05	2.6831e-05	3.11444e-05	3.58931e-05	3.44543e-05	2.36556e-05	0.0739068	0.0491093	0.704947	2.24978e-06	1.04342e-06	1.02478e-06	5.07521e-07	6.89549e-07	6.04023e-07	0.266874	0.0834841	0.279627	17.3709	132.864	424.727	445.023	-72.6291	0.0000000E+000	0.0000000E+000	0.0000000E+000	72.6291	0.0000000E+000	0.0000000E+000	0.0000000E+000	-72.6291	0.0000000E+000	0.0000000E+000	0.0000000E+000	-17.3709	0.0000000E+000	0.0000000E+000	0.0000000E+000	17.3709	3.1967	72.6291	6.7477e-06
31621.1	3.61667	2.17176	4.21863	-30.9842	1101.39	0.459394	-0.00100192	2.31756	0.614203	1	38	0.0146813	0.00348012	0	-1.03488e-05	0.517927	0.344079	9.01146	3.08047e-05	2.42987e-05	3.14868e-05	2.66916e-05	3.06047e-05	2.23551e-05	0.064955	0.109277	0.816998	8.10955e-07	1.65371e-06	5.43828e-07	8.29254e-07	6.95144e-07	2.30655e-07	0.20322	0.122031	0.237044	30.9842	614.203	1022.84	1193.08	-59.0158	0.0000000E+000	0.0000000E+000	0.0000000E+000	59.0158	0.0000000E+000	0.0000000E+000	0.0000000E+000	-59.0158	0.0000000E+000	0.0000000E+000	0.0000000E+000	-30.9842	0.0000000E+000	0.0000000E+000	0.0000000E+000	30.9842	1.66532	59.0158	-5.34867e-06
10002.2	4.21354	5.916	7.26313	-54.5405	1107.12	0.459361	-0.000778546	2.68965	1.78445	1	38	0.0145688	0.00200585	0	-7.72996e-06	0.444256	0.280129	8.82209	1.93909e-05	3.58453e-05	2.24087e-05	2.50966e-05	2.12586e-05	2.21877e-05	0.215917	0.183515	1.43684	4.04172e-06	7.42592e-07	3.41275e-07	8.13743e-07	4.97083e-07	6.75696e-07	0.079873	0.112145	0.137682	54.5405	1784.45	1270.94	2190.79	-35.4595	0.0000000E+000	0.0000000E+000	0.0000000E+000	35.4595	0.0000000E+000	0.0000000E+000	0.0000000E+000	-35.4595	0.0000000E+000	0.0000000E+000	0.0000000E+000	-54.5405	0.0000000E+000	0.0000000E+000	0.0000000E+000	54.5405	0.712228	35.4595	-4.87002e-06
3163.04	6.39263	16.5388	17.7313	-68.8673	1112.9	0.459247	-0.0029347	3.04236	2.64691	1	38	0.0139865	0.000788806	0	-1.32027e-05	0.441475	0.256818	9.16966	3.18539e-05	2.27579e-05	2.19661e-05	3.30895e-05	1.39171e-05	1.80463e-05	0.770552	0.146334	3.6408	5.254e-06	2.65898e-06	6.6485e-07	9.93628e-07	4.85132e-07	5.42309e-07	0.0203329	0.0526047	0.0563975	68.8673	2646.91	1023.09	2837.76	-21.1327	0.0000000E+000	0.0000000E+000	0.0000000E+000	21.1327	0.0000000E+000	0.0000000E+000	0.0000000E+000	-21.1327	0.0000000E+000	0.0000000E+000	0.0000000E+000	-68.8673	0.0000000E+000	0.0000000E+000	0.0000000E+000	68.8673	0.386523	21.1327	-1.27664e-06
999.682	13.6337	44.742	46.7731	-73.0531	1118.69	0.459244	-0.000145399	3.5583	3.25598	1	39	0.0140504	0.000300394	0	-1.56908e-05	0.486768	0.302568	8.53418	3.16412e-05	3.52007e-05	1.20214e-05	2.8519e-05	2.23099e-05	2.15521e-05	1.22323	0.182176	4.09903	3.01984e-06	1.90988e-06	1.84298e-07	7.72782e-07	1.74298e-07	1.65156e-07	0.00623189	0.0204514	0.0213798	73.0531	3255.98	992.153	3403.78	-16.9469	0.0000000E+000	0.0000000E+000	0.0000000E+000	16.9469	0.0000000E+000	0.0000000E+000	0.0000000E+000	-16.9469	0.0000000E+000	0.0000000E+000	0.0000000E+000	-73.0531	0.0000000E+000	0.0000000E+000	0.0000000E+000	73.0531	0.304717	16.9469	5.92322e-08
316.316	36.5914	116.338	121.957	-72.5403	1124.22	0.459263	-0.000165906	4.3249	3.93557	1	39	0.0130045	0.000106632	0	-1.5912e-05	0.553984	0.202401	9.5454	3.53901e-05	2.18565e-05	2.83679e-05	3.21159e-05	1.92635e-05	2.70665e-05	1.07684	0.240752	11.8821	7.39979e-07	4.81983e-07	3.12694e-07	4.10443e-07	2.61007e-07	3.5588e-07	0.00246016	0.00782182	0.00819959	72.5403	3935.57	1237.84	4125.64	-17.4597	0.0000000E+000	0.0000000E+000	0.0000000E+000	17.4597	0.0000000E+000	0.0000000E+000	0.0000000E+000	-17.4597	0.0000000E+000	0.0000000E+000	0.0000000E+000	-72.5403	0.0000000E+000	0.0000000E+000	0.0000000E+000	72.5403	0.314526	17.4597	4.2296e-09
[...]
9.99682	1031.21	1356.08	1703.63	-52.7494	1141.01	0.459273	-6.92539e-05	11.7401	7.43865	1	41	0.0129024	7.57349e-06	0	-1.62692e-05	1.21604	0.642404	18.7912	5.69989e-05	7.6994e-05	7.83331e-05	4.44543e-05	3.15721e-05	4.91853e-05	0.985303	0.22939	6.23022	5.90503e-08	1.79795e-08	1.59943e-08	3.57542e-08	6.76258e-09	6.91467e-09	0.000355301	0.000467235	0.000586982	52.7494	7438.65	5656.6	9345.09	-37.2506	0.0000000E+000	0.0000000E+000	0.0000000E+000	37.2506	0.0000000E+000	0.0000000E+000	0.0000000E+000	-37.2506	0.0000000E+000	0.0000000E+000	0.0000000E+000	-52.7494	0.0000000E+000	0.0000000E+000	0.0000000E+000	52.7494	0.760433	37.2506	-7.84564e-08
3.16296	2534.21	1726.26	3066.3	-34.2621	1149.45	0.459266	-6.62906e-05	29.1488	9.23856	1	41	0.012877	4.19954e-06	0	-1.63663e-05	0.401444	0.201696	8.25935	1.46506e-05	1.81176e-05	9.9766e-06	2.70174e-05	2.44129e-05	2.21941e-05	0.938372	0.134966	5.22845	3.26349e-08	1.87895e-08	2.52682e-09	8.8727e-09	4.70395e-09	4.46275e-09	0.000269534	0.000183602	0.000326126	34.2621	9238.56	13562.5	16410.1	-55.7379	0.0000000E+000	0.0000000E+000	0.0000000E+000	55.7379	0.0000000E+000	0.0000000E+000	0.0000000E+000	-55.7379	0.0000000E+000	0.0000000E+000	0.0000000E+000	-34.2621	0.0000000E+000	0.0000000E+000	0.0000000E+000	34.2621	1.46803	55.7379	4.70092e-08
1.00006	3851.32	1224.36	4041.25	-17.6357	1172.87	0.459296	-6.98659e-05	129.983	11.9308	1	42	0.0128655	3.18354e-06	0	-1.70362e-05	0.275406	0.122893	4.51874	1.12772e-05	1.08506e-05	1.58518e-05	1.79627e-05	1.43524e-05	9.5019e-06	0.762765	0.0480511	1.29482	2.17714e-08	1.00927e-08	3.88384e-10	3.57851e-09	6.72642e-10	3.86091e-10	0.000235818	7.4968e-05	0.000247448	17.6357	11930.8	37529.4	39380.2	-72.3643	0.0000000E+000	0.0000000E+000	0.0000000E+000	72.3643	0.0000000E+000	0.0000000E+000	0.0000000E+000	-72.3643	0.0000000E+000	0.0000000E+000	0.0000000E+000	-17.6357	0.0000000E+000	0.0000000E+000	0.0000000E+000	17.6357	3.14559	72.3643	-3.88027e-07
0.316193	4480.24	710.273	4536.19	-9.0084	1238.67	0.459276	-7.15216e-05	708.668	17.3744	1	42	0.0128673	2.83659e-06	0	-1.77971e-05	0.13656	0.087471	2.44224	6.52068e-06	8.30094e-06	6.90362e-06	6.71041e-06	8.10573e-06	3.00879e-06	0.784366	0.0546471	1.45788	2.04006e-08	8.43695e-09	3.94413e-10	2.69794e-09	1.81341e-10	2.70849e-10	0.00021773	3.45178e-05	0.000220449	9.0084	17374.4	109594	110963	-80.9916	0.0000000E+000	0.0000000E+000	0.0000000E+000	80.9916	0.0000000E+000	0.0000000E+000	0.0000000E+000	-80.9916	0.0000000E+000	0.0000000E+000	0.0000000E+000	-9.0084	0.0000000E+000	0.0000000E+000	0.0000000E+000	9.0084	6.30777	80.9916	4.80277e-08
0.0999518	4827.48	364.605	4841.23	-4.31918	1443.25	0.459301	-6.33784e-05	4367.24	24.7708	1	42	0.0128639	2.65716e-06	0	-2.19578e-05	0.13246	0.0695466	1.54274	4.27232e-06	8.44894e-06	5.71585e-06	9.45014e-06	7.3364e-06	3.28593e-06	0.797495	0.0385534	1.52681	1.96323e-08	7.6832e-09	2.79074e-10	2.075e-09	2.87769e-10	2.11027e-10	0.000205972	1.55565e-05	0.000206559	4.31918	24770.8	327973	328907	-85.6808	0.0000000E+000	0.0000000E+000	0.0000000E+000	85.6808	0.0000000E+000	0.0000000E+000	0.0000000E+000	-85.6808	0.0000000E+000	0.0000000E+000	0.0000000E+000	-4.31918	0.0000000E+000	0.0000000E+000	0.0000000E+000	4.31918	13.2403	85.6808	-3.73701e-07

File: 240223-OCV-EIS-Fe2Fe3_5mM-HCl1M-225RPM-Ag_AgCl_BLF8-GC-RDE-1minRestVSEoc-3ppf-14p1mVAmplitude_07_OCV_C15.mpt
EC-Lab ASCII FILE
Nb header lines : 47

Open Circuit Voltage

Run on channel : 15 (SN 19485)
User :
Electrode connection : standard
Potential control : Ewe
Ewe ctrl range : min = -1.00 V, max = 1.00 V
Ewe,I filtering : 50 kHz
Safety Limits :
	Do not start on E overload
Channel : Floating
Acquisition started on : 02/23/2024 15:54:32.363
Loaded Setting File :  NONE
Saved on :
	File : 240223-OCV-EIS-Fe2Fe3_5mM-HCl1M-225RPM-Ag_AgCl_BLF8-GC-RDE-1minRestVSEoc-3ppf-14p1mVAmplitude_07_OCV_C15.mpr
	Directory : C:\Data\mathias\RDE-RPM-variation\
	Host : 192.168.0.1
Device : VMP-300 (SN 0826)
Address : USB
EC-Lab for windows v11.52 (software)
Internet server v11.52 (firmware)
Command interpretor v11.52 (firmware)
Electrode material :
Initial state :
Electrolyte :
Comments :
Cable : special
Reference electrode : SCE Saturated Calomel Electrode (0.241 V)
Electrode surface area : 0.001 cm²
Characteristic mass : 0.001 g
Equivalent Weight : 0.000 g/eq.
Density : 0.000 g/cm3
Volume (V) : 0.001 cm³
Record EIS quality indicators
Cycle Definition : Charge/Discharge alternance
tR (h:m:s)          0:01:0.0000
dER/dt (mV/h)       1.0
record              <Ewe>
dER (mV)            0.00
dtR (s)             0.5000
E range min (V)     -1.000
E range max (V)     1.000

mode	error	time/s	<Ewe/V>
3	0	1443.75	0.460914
3	0	1444.25	0.45995
3	0	1444.75	0.459714
3	0	1445.25	0.459618
3	0	1445.75	0.459572
3	0	1446.25	0.45955
3	0	1446.75	0.459534
3	0	1447.25	0.459526
3	0	1447.75	0.45952
3	0	1448.25	0.459519
3	0	1448.75	0.45952
3	0	1449.25	0.459521
3	0	1449.75	0.459518
3	0	1450.25	0.459519
3	0	1450.75	0.459518
3	0	1451.25	0.459518
3	0	1451.75	0.459517
3	0	1452.25	0.459515
3	0	1452.75	0.459509
3	0	1453.25	0.459509
3	0	1453.75	0.459509
3	0	1454.25	0.459509
3	0	1454.75	0.459509
3	0	1455.25	0.459509
3	0	1455.75	0.459508
3	0	1456.25	0.459512
3	0	1456.75	0.459516
3	0	1457.25	0.459511
3	0	1457.75	0.459508
3	0	1458.25	0.459506
3	0	1458.75	0.459505
3	0	1459.25	0.459506
3	0	1459.75	0.459502
3	0	1460.25	0.459501
3	0	1460.75	0.459498
3	0	1461.25	0.459497
3	0	1461.75	0.459497
3	0	1462.25	0.4595
3	0	1462.75	0.459498
3	0	1463.25	0.459499
3	0	1463.75	0.4595
3	0	1464.25	0.459501
3	0	1464.75	0.459498
3	0	1465.25	0.459493
3	0	1465.75	0.459491
3	0	1466.25	0.459492
3	0	1466.75	0.459491
3	0	1467.25	0.459493
3	0	1467.75	0.459491
3	0	1468.25	0.45949
3	0	1468.75	0.459489
3	0	1469.25	0.459488
3	0	1469.75	0.45949
3	0	1470.25	0.459488
3	0	1470.75	0.459485
3	0	1471.25	0.459487
3	0	1471.75	0.459487
3	0	1472.25	0.459488
3	0	1472.75	0.459487
3	0	1473.25	0.459483
3	0	1473.75	0.459484
3	0	1474.25	0.459487
3	0	1474.75	0.459487
3	0	1475.25	0.459486
3	0	1475.75	0.459485
3	0	1476.25	0.459486
3	0	1476.75	0.459488
3	0	1477.25	0.459485
3	0	1477.75	0.459483
3	0	1478.25	0.459477
3	0	1478.75	0.459474
3	0	1479.25	0.459478
3	0	1479.75	0.45948
3	0	1480.25	0.459481
3	0	1480.75	0.459482
3	0	1481.25	0.459481
3	0	1481.75	0.459484
3	0	1482.25	0.459485
3	0	1482.75	0.459485
3	0	1483.25	0.459482
3	0	1483.75	0.459482
3	0	1484.25	0.459481
3	0	1484.75	0.459473
3	0	1485.25	0.459469
3	0	1485.75	0.459478
3	0	1486.25	0.45948
3	0	1486.75	0.459478
3	0	1487.25	0.459475
3	0	1487.75	0.459476
3	0	1488.25	0.459477
3	0	1488.75	0.459478
3	0	1489.25	0.45948
3	0	1489.75	0.459481
3	0	1490.25	0.459481
3	0	1490.75	0.459478
3	0	1491.25	0.459475
3	0	1491.75	0.459475
3	0	1492.25	0.459477
3	0	1492.75	0.459471
3	0	1493.25	0.45947
3	0	1493.75	0.45947
3	0	1494.25	0.459469
3	0	1494.75	0.459469
3	0	1495.25	0.459472
3	0	1495.75	0.459478
3	0	1496.25	0.459477
3	0	1496.75	0.459475
3	0	1497.25	0.459474
3	0	1497.75	0.459476
3	0	1498.25	0.459476
3	0	1498.75	0.459474
3	0	1499.25	0.459472
3	0	1499.75	0.459472
3	0	1500.25	0.459473
3	0	1500.75	0.459472
3	0	1501.25	0.459471
3	0	1501.75	0.459471
3	0	1502.25	0.459474
3	0	1502.75	0.459475
3	0	1503.25	0.459477
3	0	1503.41	0.459475

File: 240223-OCV-EIS-Fe2Fe3_5mM-HCl1M-625RPM-Ag_AgCl_BLF8-GC-RDE-1minRestVSEoc-3ppf-14p1mVAmplitude_01_OCV_C15.mpt
EC-Lab ASCII FILE
Nb header lines : 47

Open Circuit Voltage

Run on channel : 15 (SN 19485)
User :
Electrode connection : standard
Potential control : Ewe
Ewe ctrl range : min = -1.00 V, max = 1.00 V
Ewe,I filtering : 50 kHz
Safety Limits :
	Do not start on E overload
Channel : Floating
Acquisition started on : 02/23/2024 15:19:09.853
Loaded Setting File :  NONE
Saved on :
	File : 240223-OCV-EIS-Fe2Fe3_5mM-HCl1M-625RPM-Ag_AgCl_BLF8-GC-RDE-1minRestVSEoc-3ppf-14p1mVAmplitude_01_OCV_C15.mpr
	Directory : C:\Data\mathias\RDE-RPM-variation\
	Host : 192.168.0.1
Device : VMP-300 (SN 0826)
Address : USB
EC-Lab for windows v11.52 (software)
Internet server v11.52 (firmware)
Command interpretor v11.52 (firmware)
Electrode material :
Initial state :
Electrolyte :
Comments :
Cable : special
Reference electrode : SCE Saturated Calomel Electrode (0.241 V)
Electrode surface area : 0.001 cm²
Characteristic mass : 0.001 g
Equivalent Weight : 0.000 g/eq.
Density : 0.000 g/cm3
Volume (V) : 0.001 cm³
Record EIS quality indicators
Cycle Definition : Charge/Discharge alternance
tR (h:m:s)          0:01:0.0000
dER/dt (mV/h)       1.0
record              <Ewe>
dER (mV)            0.00
dtR (s)             0.5000
E range min (V)     -1.000
E range max (V)     1.000

mode	error	time/s	<Ewe/V>
3	0	0.5	0.459783
3	0	1	0.459783
3	0	1.5	0.459786
3	0	2	0.459786
3	0	2.5	0.459785
3	0	3	0.459785
3	0	3.5	0.459787
3	0	4	0.459787
3	0	4.5	0.459789
3	0	5	0.459791
3	0	5.5	0.459789
3	0	6	0.459787
3	0	6.5	0.459786
3	0	7	0.459788
3	0	7.5	0.459789
3	0	8	0.459789
3	0	8.5	0.459792
3	0	9	0.45979
3	0	9.5	0.459791
3	0	10	0.459793
3	0	10.5	0.45979
3	0	11	0.45979
3	0	11.5	0.459792
3	0	12	0.459792
3	0	12.5	0.459789
3	0	13	0.459791
3	0	13.5	0.459791
3	0	14	0.45979
3	0	14.5	0.45979
3	0	15	0.45979
3	0	15.5	0.459793
3	0	16	0.459793
3	0	16.5	0.459791
3	0	17	0.459794
3	0	17.5	0.459793
3	0	18	0.45979
3	0	18.5	0.45979
3	0	19	0.459794
3	0	19.5	0.459796
3	0	20	0.459792
3	0	20.5	0.459792
3	0	21	0.459791
3	0	21.5	0.459791
3	0	22	0.459793
3	0	22.5	0.459791
3	0	23	0.459791
3	0	23.5	0.459787
3	0	24	0.459791
3	0	24.5	0.459791
3	0	25	0.45979
3	0	25.5	0.459788
3	0	26	0.45979
3	0	26.5	0.45979
3	0	27	0.459794
3	0	27.5	0.459794
3	0	28	0.459793
3	0	28.5	0.459792
3	0	29	0.459788
3	0	29.5	0.459788
3	0	30	0.459782
3	0	30.5	0.45978
3	0	31	0.459783
3	0	31.5	0.459781
3	0	32	0.459783
3	0	32.5	0.459781
3	0	33	0.459782
3	0	33.5	0.459784
3	0	34	0.459787
3	0	34.5	0.459784
3	0	35	0.459787
3	0	35.5	0.459784
3	0	36	0.459785
3	0	36.5	0.459782
3	0	37	0.459783
3	0	37.5	0.459783
3	0	38	0.459784
3	0	38.5	0.459782
3	0	39	0.459782
3	0	39.5	0.459782
3	0	40	0.459783
3	0	40.5	0.459785
3	0	41	0.459784
3	0	41.5	0.459785
3	0	42	0.459785
3	0	42.5	0.459786
3	0	43	0.459784
3	0	43.5	0.459784
3	0	44	0.459785
3	0	44.5	0.459786
3	0	45	0.459782
3	0	45.5	0.459783
3	0	46	0.45978
3	0	46.5	0.459779
3	0	47	0.45978
3	0	47.5	0.459782
3	0	48	0.459778
3	0	48.5	0.459782
3	0	49	0.459781
3	0	49.5	0.459786
3	0	50	0.459781
3	0	50.5	0.459781
3	0	51	0.459782
3	0	51.5	0.459784
3	0	52	0.459784
3	0	52.5	0.459779
3	0	53	0.459781
3	0	53.5	0.45978
3	0	54	0.459779
3	0	54.5	0.45978
3	0	55	0.459777
3	0	55.5	0.459779
3	0	56	0.45978
3	0	56.5	0.459778
3	0	56.5764	0.459778