Folder: Thesis/Python/Data/RDE (part 14)

File: 240223-OCV-EIS-Fe2Fe3_5mM-HCl1M-625RPM-Ag_AgCl_BLF8-GC-RDE-1minRestVSEoc-3ppf-14p1mVAmplitude_02_PEIS_C15.mpt
EC-Lab ASCII FILE
Nb header lines : 67

Potentio Electrochemical Impedance Spectroscopy

Run on channel : 15 (SN 19485)
User :
Electrode connection : standard
Potential control : Ewe
Ewe ctrl range : min = -1.00 V, max = 1.00 V
Ewe,I filtering : 50 kHz
Safety Limits :
	Do not start on E overload
Channel : Floating
Acquisition started on : 02/23/2024 15:19:09.853
Loaded Setting File :  NONE
Saved on :
	File : 240223-OCV-EIS-Fe2Fe3_5mM-HCl1M-625RPM-Ag_AgCl_BLF8-GC-RDE-1minRestVSEoc-3ppf-14p1mVAmplitude_02_PEIS_C15.mpr
	Directory : C:\Data\mathias\RDE-RPM-variation\
	Host : 192.168.0.1
Device : VMP-300 (SN 0826)
Address : USB
EC-Lab for windows v11.52 (software)
Internet server v11.52 (firmware)
Command interpretor v11.52 (firmware)
Electrode material :
Initial state :
Electrolyte :
Comments :
Cable : special
Reference electrode : SCE Saturated Calomel Electrode (0.241 V)
Electrode surface area : 0.001 cm²
Characteristic mass : 0.001 g
Equivalent Weight : 0.000 g/eq.
Density : 0.000 g/cm3
Volume (V) : 0.001 cm³
Record EIS quality indicators
Cycle Definition : Charge/Discharge alternance
Mode                Single sine
E (V)               0.0000
vs.                 Eoc
tE (h:m:s)          0:01:0.0000
record              0
dI                  0.000
unit dI             mA
dt (s)              0.000
fi                  1.000
unit fi             MHz
ff                  100.000
unit ff             mHz
Nd                  10
Points              per decade
spacing             Logarithmic
Va (mV)             14.1
pw                  0.10
Na                  3
corr                0
E range min (V)     -1.000
E range max (V)     1.000
I Range             Auto
Bandwidth           8
nc cycles           0
goto Ns'            0
nr cycles           0
inc. cycle          1

freq/Hz	Re(Z)/Ohm	-Im(Z)/Ohm	|Z|/Ohm	Phase(Z)/deg	time/s	<Ewe>/V	<I>/mA	Cs/µF	Cp/µF	cycle number	I Range	|Ewe|/V	|I|/A	Ns	(Q-Qo)/mA.h	THD Ewe/%	NSD Ewe/%	NSR Ewe/%	|Ewe h2|/V	|Ewe h3|/V	|Ewe h4|/V	|Ewe h5|/V	|Ewe h6|/V	|Ewe h7|/V	THD I/%	NSD I/%	NSR I/%	|I h2|/A	|I h3|/A	|I h4|/A	|I h5|/A	|I h6|/A	|I h7|/A	Re(Y)/Ohm-1	Im(Y)/Ohm-1	|Y|/Ohm-1	Phase(Y)/deg	Re(C)/nF	Im(C)/nF	|C|/nF	Phase(C)/deg	Re(M)	Im(M)	|M|	Phase(M)/deg	Re(Permittivity)	Im(Permittivity)	|Permittivity|	Phase(Permittivity)/deg	Re(Resistivity)/Ohm.cm	Im(Resistivity)/Ohm.cm	|Resistivity|/Ohm.cm	Phase(Resistivity)/deg	Re(Conductivity)/mS/cm	Im(Conductivity)/mS/cm	|Conductivity|/mS/cm	Phase(Conductivity)/deg	Tan(Delta)	Loss Angle(Delta)/deg	dq/mA.h
1.00002e+06	3.51704	4.07844	5.38547	-49.2271	119.763	0.459534	-0.0107101	0.0390228	0.02238	1	38	0.0111203	0.00206487	0	-4.29984e-06	-1	-1	-1	0	0	0	0	0	0	-1	-1	-1	0	0	0	0	0	0	0.121264	0.14062	0.185685	49.2271	22.38	19.2994	29.5521	-40.7729	0.0000000E+000	0.0000000E+000	0.0000000E+000	40.7729	0.0000000E+000	0.0000000E+000	0.0000000E+000	-40.7729	0.0000000E+000	0.0000000E+000	0.0000000E+000	-49.2271	0.0000000E+000	0.0000000E+000	0.0000000E+000	49.2271	0.86235	40.7729	-4.29984e-06
316230	3.45165	1.35564	3.70832	-21.4425	125.363	0.459529	-0.00206136	0.371254	0.0496144	1	38	0.0145639	0.00392737	0	2.16445e-06	-1	-1	-1	0	0	0	0	0	0	-1	-1	-1	0	0	0	0	0	0	0.250999	0.0985804	0.269664	21.4425	49.6144	126.325	135.719	-68.5575	0.0000000E+000	0.0000000E+000	0.0000000E+000	68.5575	0.0000000E+000	0.0000000E+000	0.0000000E+000	-68.5575	0.0000000E+000	0.0000000E+000	0.0000000E+000	-21.4425	0.0000000E+000	0.0000000E+000	0.0000000E+000	21.4425	2.54613	68.5575	7.33581e-06
100004	3.42616	1.05614	3.58524	-17.1323	131.099	0.459515	-0.00245608	1.5069	0.130764	1	38	0.014585	0.00406806	0	-3.34071e-06	0.597468	0.276188	8.83457	3.02717e-05	3.32613e-05	1.57268e-05	2.27634e-05	5.06485e-05	4.03297e-05	0.0730084	0.0512369	0.703051	2.04797e-06	1.24904e-06	9.34912e-07	9.77844e-07	9.29816e-07	4.44491e-07	0.266545	0.0821644	0.278921	17.1323	130.764	424.203	443.9	-72.8677	0.0000000E+000	0.0000000E+000	0.0000000E+000	72.8677	0.0000000E+000	0.0000000E+000	0.0000000E+000	-72.8677	0.0000000E+000	0.0000000E+000	0.0000000E+000	-17.1323	0.0000000E+000	0.0000000E+000	0.0000000E+000	17.1323	3.24404	72.8677	-2.734e-06
31621.1	3.61517	2.14122	4.2017	-30.6377	136.835	0.459518	-0.00194779	2.35062	0.610455	1	38	0.0146652	0.00349031	0	-5.03699e-06	0.489105	0.331089	8.73387	2.91762e-05	2.94483e-05	4.41653e-05	2.09567e-05	1.64098e-05	2.26169e-05	0.0619309	0.0783804	0.81738	4.61481e-07	1.48948e-06	8.97075e-07	5.1869e-07	3.85383e-07	5.80584e-07	0.204776	0.121286	0.237999	30.6377	610.455	1030.67	1197.89	-59.3623	0.0000000E+000	0.0000000E+000	0.0000000E+000	59.3623	0.0000000E+000	0.0000000E+000	0.0000000E+000	-59.3623	0.0000000E+000	0.0000000E+000	0.0000000E+000	-30.6377	0.0000000E+000	0.0000000E+000	0.0000000E+000	30.6377	1.68837	59.3623	2.03591e-06
10002.2	4.21755	5.82229	7.18935	-54.0812	142.571	0.45951	-0.001622	2.73294	1.79241	1	38	0.0145802	0.00202802	0	-9.58236e-06	0.504101	0.309048	8.88659	3.23712e-05	4.09994e-05	9.26373e-06	2.60311e-05	1.66976e-05	3.05608e-05	0.23305	0.189953	1.40992	4.44071e-06	7.14177e-07	5.92006e-07	7.30371e-07	7.51909e-07	3.22424e-07	0.0815981	0.112646	0.139095	54.0812	1792.41	1298.39	2213.27	-35.9188	0.0000000E+000	0.0000000E+000	0.0000000E+000	35.9188	0.0000000E+000	0.0000000E+000	0.0000000E+000	-35.9188	0.0000000E+000	0.0000000E+000	0.0000000E+000	-54.0812	0.0000000E+000	0.0000000E+000	0.0000000E+000	54.0812	0.724379	35.9188	1.27699e-07
3163.04	6.36329	16.2057	17.4103	-68.5622	148.35	0.459384	-0.00289187	3.10489	2.69013	1	38	0.0139699	0.000802394	0	-1.1697e-05	0.488284	0.339461	9.18024	2.97118e-05	3.35414e-05	2.43305e-05	1.45603e-05	3.16934e-05	2.22464e-05	0.751339	0.14543	3.58091	5.29136e-06	2.47763e-06	6.54376e-07	9.93502e-07	5.28823e-07	4.13139e-07	0.0209928	0.0534635	0.0574373	68.5622	2690.13	1056.3	2890.08	-21.4378	0.0000000E+000	0.0000000E+000	0.0000000E+000	21.4378	0.0000000E+000	0.0000000E+000	0.0000000E+000	-21.4378	0.0000000E+000	0.0000000E+000	0.0000000E+000	-68.5622	0.0000000E+000	0.0000000E+000	0.0000000E+000	68.5622	0.392656	21.4378	-1.24026e-06
999.682	13.6617	43.9259	46.0013	-72.7234	154.133	0.459373	-0.000142044	3.62442	3.30474	1	39	0.0140883	0.000306259	0	-1.5942e-05	0.482403	0.207013	8.95107	3.46586e-05	2.18624e-05	1.7883e-05	2.97173e-05	1.48876e-05	3.05057e-05	1.16685	0.11808	4.30877	2.91081e-06	1.86501e-06	2.56544e-07	7.10514e-07	1.53239e-07	3.92154e-07	0.006456	0.0207577	0.0217385	72.7234	3304.74	1027.83	3460.89	-17.2766	0.0000000E+000	0.0000000E+000	0.0000000E+000	17.2766	0.0000000E+000	0.0000000E+000	0.0000000E+000	-17.2766	0.0000000E+000	0.0000000E+000	0.0000000E+000	-72.7234	0.0000000E+000	0.0000000E+000	0.0000000E+000	72.7234	0.311017	17.2766	-2.76142e-07
316.316	36.1322	114.252	119.83	-72.4505	159.661	0.459407	-5.05366e-05	4.40386	4.00346	1	39	0.013027	0.000108712	0	-1.63321e-05	0.50941	0.241226	9.63616	2.07261e-05	2.74607e-05	1.95889e-05	3.31949e-05	9.983e-06	3.23713e-05	1.1222	0.292442	11.9586	9.81883e-07	2.68761e-07	2.81787e-07	2.49452e-07	2.30056e-07	4.06091e-07	0.00251632	0.00795677	0.00834518	72.4505	4003.46	1266.09	4198.89	-17.5495	0.0000000E+000	0.0000000E+000	0.0000000E+000	17.5495	0.0000000E+000	0.0000000E+000	0.0000000E+000	-17.5495	0.0000000E+000	0.0000000E+000	0.0000000E+000	-72.4505	0.0000000E+000	0.0000000E+000	0.0000000E+000	72.4505	0.316249	17.5495	-1.42055e-07
[...]
9.99682	1010.06	1312.11	1655.86	-52.4111	176.449	0.459441	-9.97354e-05	12.1335	7.61875	1	41	0.0128922	7.78584e-06	0	-1.67663e-05	1.00012	0.381915	19.233	5.00478e-05	3.06691e-05	5.65122e-05	3.25875e-05	5.86896e-05	5.19213e-05	0.913077	0.167575	6.2507	5.45568e-08	2.78021e-08	6.68419e-09	3.0189e-08	1.33371e-08	8.96064e-09	0.000368384	0.000478548	0.000603916	52.4111	7618.75	5864.88	9614.69	-37.5889	0.0000000E+000	0.0000000E+000	0.0000000E+000	37.5889	0.0000000E+000	0.0000000E+000	0.0000000E+000	-37.5889	0.0000000E+000	0.0000000E+000	0.0000000E+000	-52.4111	0.0000000E+000	0.0000000E+000	0.0000000E+000	52.4111	0.769796	37.5889	-2.45915e-08
3.16296	2461.81	1650.16	2963.71	-33.8341	184.89	0.45943	-9.62622e-05	30.493	9.45328	1	41	0.0128665	4.34135e-06	0	-1.69599e-05	0.471392	0.233377	8.82418	1.64929e-05	1.8767e-05	3.17889e-05	2.91918e-05	2.46372e-05	1.78481e-05	0.930843	0.201685	5.30653	3.43659e-08	1.68018e-08	5.38407e-09	8.80635e-09	5.35601e-09	4.47408e-09	0.000280275	0.000187869	0.000337415	33.8341	9453.28	14103	16978.2	-56.1659	0.0000000E+000	0.0000000E+000	0.0000000E+000	56.1659	0.0000000E+000	0.0000000E+000	0.0000000E+000	-56.1659	0.0000000E+000	0.0000000E+000	0.0000000E+000	-33.8341	0.0000000E+000	0.0000000E+000	0.0000000E+000	33.8341	1.49186	56.1659	-4.4563e-08
1.00006	3722.51	1161.24	3899.43	-17.3253	208.64	0.459411	-0.000102353	137.048	12.1538	1	42	0.0128742	3.30156e-06	0	-1.77208e-05	0.227132	0.115209	4.79249	1.17493e-05	8.01758e-06	8.5782e-06	1.01182e-05	1.02928e-05	1.61823e-05	0.758244	0.0511642	1.11179	2.25584e-08	1.00336e-08	5.63061e-10	3.98048e-09	4.90839e-10	5.9022e-10	0.000244812	7.63692e-05	0.000256448	17.3253	12153.8	38960.7	40812.4	-72.6747	0.0000000E+000	0.0000000E+000	0.0000000E+000	72.6747	0.0000000E+000	0.0000000E+000	0.0000000E+000	-72.6747	0.0000000E+000	0.0000000E+000	0.0000000E+000	-17.3253	0.0000000E+000	0.0000000E+000	0.0000000E+000	17.3253	3.20565	72.6747	-1.88558e-07
0.316193	4324.47	628.487	4369.9	-8.26905	274.436	0.459434	-9.59657e-05	800.888	16.5661	1	42	0.0128723	2.94566e-06	0	-1.92191e-05	0.152236	0.0697344	2.56977	5.17971e-06	8.20687e-06	8.19568e-06	5.94523e-06	7.83555e-06	7.67526e-06	0.776747	0.029808	1.30105	2.09489e-08	8.7744e-09	2.90288e-10	2.71096e-09	1.52321e-10	3.61469e-10	0.000226459	3.29119e-05	0.000228838	8.26905	16566.1	113988	115185	-81.731	0.0000000E+000	0.0000000E+000	0.0000000E+000	81.731	0.0000000E+000	0.0000000E+000	0.0000000E+000	-81.731	0.0000000E+000	0.0000000E+000	0.0000000E+000	-8.26905	0.0000000E+000	0.0000000E+000	0.0000000E+000	8.26905	6.88077	81.731	-5.42354e-07
0.0999518	4573.84	280.593	4582.44	-3.51055	479.018	0.45943	-9.90519e-05	5674.82	21.2772	1	42	0.0128657	2.8076e-06	0	-2.38725e-05	0.123018	0.0479495	1.53759	2.79241e-06	9.67222e-06	4.41868e-06	8.60654e-06	5.00321e-06	3.2639e-06	0.796609	0.0300726	1.37028	2.07613e-08	8.0089e-09	2.21441e-10	2.20305e-09	2.70358e-10	1.78455e-10	0.000217815	1.33624e-05	0.000218224	3.51055	21277.2	346830	347483	-86.4894	0.0000000E+000	0.0000000E+000	0.0000000E+000	86.4894	0.0000000E+000	0.0000000E+000	0.0000000E+000	-86.4894	0.0000000E+000	0.0000000E+000	0.0000000E+000	-3.51055	0.0000000E+000	0.0000000E+000	0.0000000E+000	3.51055	16.3006	86.4894	-8.44031e-07

File: 240223-OCV-EIS-Fe2Fe3_5mM-HCl1M-625RPM-Ag_AgCl_BLF8-GC-RDE-1minRestVSEoc-3ppf-14p1mVAmplitude_03_OCV_C15.mpt
EC-Lab ASCII FILE
Nb header lines : 47

Open Circuit Voltage

Run on channel : 15 (SN 19485)
User :
Electrode connection : standard
Potential control : Ewe
Ewe ctrl range : min = -1.00 V, max = 1.00 V
Ewe,I filtering : 50 kHz
Safety Limits :
	Do not start on E overload
Channel : Floating
Acquisition started on : 02/23/2024 15:19:09.853
Loaded Setting File :  NONE
Saved on :
	File : 240223-OCV-EIS-Fe2Fe3_5mM-HCl1M-625RPM-Ag_AgCl_BLF8-GC-RDE-1minRestVSEoc-3ppf-14p1mVAmplitude_03_OCV_C15.mpr
	Directory : C:\Data\mathias\RDE-RPM-variation\
	Host : 192.168.0.1
Device : VMP-300 (SN 0826)
Address : USB
EC-Lab for windows v11.52 (software)
Internet server v11.52 (firmware)
Command interpretor v11.52 (firmware)
Electrode material :
Initial state :
Electrolyte :
Comments :
Cable : special
Reference electrode : SCE Saturated Calomel Electrode (0.241 V)
Electrode surface area : 0.001 cm²
Characteristic mass : 0.001 g
Equivalent Weight : 0.000 g/eq.
Density : 0.000 g/cm3
Volume (V) : 0.001 cm³
Record EIS quality indicators
Cycle Definition : Charge/Discharge alternance
tR (h:m:s)          0:01:0.0000
dER/dt (mV/h)       1.0
record              <Ewe>
dER (mV)            0.00
dtR (s)             0.5000
E range min (V)     -1.000
E range max (V)     1.000

mode	error	time/s	<Ewe/V>
3	0	479.518	0.460766
3	0	480.018	0.460089
3	0	480.518	0.459922
3	0	481.018	0.459863
3	0	481.518	0.459833
3	0	482.018	0.459817
3	0	482.518	0.459804
3	0	483.018	0.459798
3	0	483.518	0.459793
3	0	484.018	0.45979
3	0	484.518	0.459786
3	0	485.018	0.459784
3	0	485.518	0.45978
3	0	486.018	0.459778
3	0	486.518	0.45978
3	0	487.018	0.459782
3	0	487.518	0.459779
3	0	488.018	0.459779
3	0	488.518	0.459778
3	0	489.018	0.459773
3	0	489.518	0.459775
3	0	490.018	0.459775
3	0	490.518	0.459769
3	0	491.018	0.459772
3	0	491.518	0.459774
3	0	492.018	0.459773
3	0	492.518	0.459772
3	0	493.018	0.459772
3	0	493.518	0.459771
3	0	494.018	0.459769
3	0	494.518	0.459773
3	0	495.018	0.459772
3	0	495.518	0.459772
3	0	496.018	0.459774
3	0	496.518	0.459774
3	0	497.018	0.459774
3	0	497.518	0.459773
3	0	498.018	0.459773
3	0	498.518	0.459776
3	0	499.018	0.459776
3	0	499.518	0.45977
3	0	500.018	0.45977
3	0	500.518	0.459771
3	0	501.018	0.459779
3	0	501.518	0.459785
3	0	502.018	0.459785
3	0	502.518	0.459785
3	0	503.018	0.459784
3	0	503.518	0.459786
3	0	504.018	0.459776
3	0	504.518	0.45977
3	0	505.018	0.45977
3	0	505.518	0.459771
3	0	506.018	0.459774
3	0	506.518	0.459773
3	0	507.018	0.459773
3	0	507.518	0.459771
3	0	508.018	0.459769
3	0	508.518	0.459771
3	0	509.018	0.459773
3	0	509.518	0.459771
3	0	510.018	0.459769
3	0	510.518	0.459769
3	0	511.018	0.459771
3	0	511.518	0.459774
3	0	512.018	0.459773
3	0	512.518	0.459773
3	0	513.018	0.459768
3	0	513.518	0.459768
3	0	514.018	0.459768
3	0	514.518	0.459768
3	0	515.018	0.459764
3	0	515.518	0.459764
3	0	516.018	0.459764
3	0	516.518	0.459762
3	0	517.018	0.459763
3	0	517.518	0.459765
3	0	518.018	0.459767
3	0	518.518	0.459765
3	0	519.018	0.459764
3	0	519.518	0.459764
3	0	520.018	0.459763
3	0	520.518	0.459765
3	0	521.018	0.459763
3	0	521.518	0.459764
3	0	522.018	0.459762
3	0	522.518	0.459764
3	0	523.018	0.459764
3	0	523.518	0.459766
3	0	524.018	0.459767
3	0	524.518	0.459766
3	0	525.018	0.459766
3	0	525.518	0.459766
3	0	526.018	0.459762
3	0	526.518	0.459765
3	0	527.018	0.459766
3	0	527.518	0.459767
3	0	528.018	0.459764
3	0	528.518	0.459762
3	0	529.018	0.459763
3	0	529.518	0.459762
3	0	530.018	0.459764
3	0	530.518	0.459763
3	0	531.018	0.459761
3	0	531.518	0.45976
3	0	532.018	0.459759
3	0	532.518	0.459758
3	0	533.018	0.459757
3	0	533.518	0.459755
3	0	534.018	0.459758
3	0	534.518	0.459759
3	0	535.018	0.459757
3	0	535.518	0.459759
3	0	536.018	0.459756
3	0	536.518	0.459758
3	0	537.018	0.459756
3	0	537.518	0.459757
3	0	538.018	0.459757
3	0	538.518	0.459758
3	0	539.018	0.459759
3	0	539.177	0.459757

File: 240223-OCV-EIS-Fe2Fe3_5mM-HCl1M-625RPM-Ag_AgCl_BLF8-GC-RDE-1minRestVSEoc-3ppf-14p1mVAmplitude_04_PEIS_C15.mpt
EC-Lab ASCII FILE
Nb header lines : 67

Potentio Electrochemical Impedance Spectroscopy

Run on channel : 15 (SN 19485)
User :
Electrode connection : standard
Potential control : Ewe
Ewe ctrl range : min = -1.00 V, max = 1.00 V
Ewe,I filtering : 50 kHz
Safety Limits :
	Do not start on E overload
Channel : Floating
Acquisition started on : 02/23/2024 15:19:09.853
Loaded Setting File :  NONE
Saved on :
	File : 240223-OCV-EIS-Fe2Fe3_5mM-HCl1M-625RPM-Ag_AgCl_BLF8-GC-RDE-1minRestVSEoc-3ppf-14p1mVAmplitude_04_PEIS_C15.mpr
	Directory : C:\Data\mathias\RDE-RPM-variation\
	Host : 192.168.0.1
Device : VMP-300 (SN 0826)
Address : USB
EC-Lab for windows v11.52 (software)
Internet server v11.52 (firmware)
Command interpretor v11.52 (firmware)
Electrode material :
Initial state :
Electrolyte :
Comments :
Cable : special
Reference electrode : SCE Saturated Calomel Electrode (0.241 V)
Electrode surface area : 0.001 cm²
Characteristic mass : 0.001 g
Equivalent Weight : 0.000 g/eq.
Density : 0.000 g/cm3
Volume (V) : 0.001 cm³
Record EIS quality indicators
Cycle Definition : Charge/Discharge alternance
Mode                Single sine
E (V)               0.0000
vs.                 Eoc
tE (h:m:s)          0:01:0.0000
record              0
dI                  0.000
unit dI             mA
dt (s)              0.000
fi                  1.000
unit fi             MHz
ff                  100.000
unit ff             mHz
Nd                  10
Points              per decade
spacing             Logarithmic
Va (mV)             14.1
pw                  0.10
Na                  3
corr                0
E range min (V)     -1.000
E range max (V)     1.000
I Range             Auto
Bandwidth           8
nc cycles           0
goto Ns'            0
nr cycles           0
inc. cycle          1

freq/Hz	Re(Z)/Ohm	-Im(Z)/Ohm	|Z|/Ohm	Phase(Z)/deg	time/s	<Ewe>/V	<I>/mA	Cs/µF	Cp/µF	cycle number	I Range	|Ewe|/V	|I|/A	Ns	(Q-Qo)/mA.h	THD Ewe/%	NSD Ewe/%	NSR Ewe/%	|Ewe h2|/V	|Ewe h3|/V	|Ewe h4|/V	|Ewe h5|/V	|Ewe h6|/V	|Ewe h7|/V	THD I/%	NSD I/%	NSR I/%	|I h2|/A	|I h3|/A	|I h4|/A	|I h5|/A	|I h6|/A	|I h7|/A	Re(Y)/Ohm-1	Im(Y)/Ohm-1	|Y|/Ohm-1	Phase(Y)/deg	Re(C)/nF	Im(C)/nF	|C|/nF	Phase(C)/deg	Re(M)	Im(M)	|M|	Phase(M)/deg	Re(Permittivity)	Im(Permittivity)	|Permittivity|	Phase(Permittivity)/deg	Re(Resistivity)/Ohm.cm	Im(Resistivity)/Ohm.cm	|Resistivity|/Ohm.cm	Phase(Resistivity)/deg	Re(Conductivity)/mS/cm	Im(Conductivity)/mS/cm	|Conductivity|/mS/cm	Phase(Conductivity)/deg	Tan(Delta)	Loss Angle(Delta)/deg	dq/mA.h
1.00002e+06	3.52542	4.08494	5.39586	-49.2048	602.365	0.459517	-0.0100063	0.0389607	0.0223293	1	38	0.011144	0.00206528	0	-7.3268e-06	-1	-1	-1	0	0	0	0	0	0	-1	-1	-1	0	0	0	0	0	0	0.121085	0.140302	0.185327	49.2048	22.3293	19.2709	29.4952	-40.7952	0.0000000E+000	0.0000000E+000	0.0000000E+000	40.7952	0.0000000E+000	0.0000000E+000	0.0000000E+000	-40.7952	0.0000000E+000	0.0000000E+000	0.0000000E+000	-49.2048	0.0000000E+000	0.0000000E+000	0.0000000E+000	49.2048	0.86303	40.7952	-7.3268e-06
316230	3.44551	1.35756	3.70331	-21.5048	607.964	0.459487	-0.000942336	0.370731	0.0498191	1	38	0.0145603	0.0039317	0	-1.56027e-05	-1	-1	-1	0	0	0	0	0	0	-1	-1	-1	0	0	0	0	0	0	0.251231	0.0989871	0.270029	21.5048	49.8191	126.442	135.902	-68.4952	0.0000000E+000	0.0000000E+000	0.0000000E+000	68.4952	0.0000000E+000	0.0000000E+000	0.0000000E+000	-68.4952	0.0000000E+000	0.0000000E+000	0.0000000E+000	-21.5048	0.0000000E+000	0.0000000E+000	0.0000000E+000	21.5048	2.53802	68.4952	7.15224e-06
100004	3.41183	1.05369	3.57083	-17.1625	613.699	0.459491	-0.000849227	1.5104	0.131516	1	38	0.0145465	0.00407369	0	-3.07105e-05	0.486188	0.335569	8.92422	2.76505e-05	2.33344e-05	2.98968e-05	2.55191e-05	3.0225e-05	2.94748e-05	0.070974	0.0541687	0.707873	1.9907e-06	1.3029e-06	1.08601e-06	3.56311e-07	9.26035e-07	3.64799e-07	0.267577	0.0826369	0.280047	17.1625	131.516	425.846	445.692	-72.8375	0.0000000E+000	0.0000000E+000	0.0000000E+000	72.8375	0.0000000E+000	0.0000000E+000	0.0000000E+000	-72.8375	0.0000000E+000	0.0000000E+000	0.0000000E+000	-17.1625	0.0000000E+000	0.0000000E+000	0.0000000E+000	17.1625	3.23798	72.8375	-7.33067e-06
31621.1	3.61379	2.15001	4.205	-30.7504	619.435	0.459531	-0.00199061	2.341	0.612001	1	38	0.0146812	0.00349137	0	-1.06681e-05	0.400487	0.301944	9.06322	2.25224e-05	3.59466e-05	1.5201e-05	2.01233e-05	1.20288e-05	1.67084e-05	0.0632354	0.116322	0.821976	6.26666e-07	1.19579e-06	7.55822e-07	6.18198e-07	6.9031e-07	4.402e-07	0.204377	0.121593	0.237812	30.7504	612.001	1028.66	1196.95	-59.2496	0.0000000E+000	0.0000000E+000	0.0000000E+000	59.2496	0.0000000E+000	0.0000000E+000	0.0000000E+000	-59.2496	0.0000000E+000	0.0000000E+000	0.0000000E+000	-30.7504	0.0000000E+000	0.0000000E+000	0.0000000E+000	30.7504	1.68082	59.2496	-1.44845e-06
10002.2	4.2147	5.85328	7.2128	-54.2439	625.169	0.459517	-0.000866057	2.71847	1.79025	1	38	0.0144839	0.00200808	0	-7.29164e-06	0.502499	0.239097	9.19441	3.48407e-05	3.19973e-05	1.99766e-05	2.08094e-05	3.36297e-05	2.54678e-05	0.207761	0.187962	1.45575	3.83702e-06	7.55709e-07	7.65878e-07	8.05102e-07	6.12428e-07	5.02128e-07	0.0810136	0.11251	0.138642	54.2439	1790.25	1289.09	2206.07	-35.7561	0.0000000E+000	0.0000000E+000	0.0000000E+000	35.7561	0.0000000E+000	0.0000000E+000	0.0000000E+000	-35.7561	0.0000000E+000	0.0000000E+000	0.0000000E+000	-54.2439	0.0000000E+000	0.0000000E+000	0.0000000E+000	54.2439	0.720057	35.7561	1.8034e-06
3163.04	6.37339	16.2739	17.4774	-68.6131	630.948	0.459403	-0.00231281	3.09188	2.68072	1	38	0.0138078	0.000790034	0	-6.5661e-06	0.506072	0.249931	9.6193	2.79152e-05	1.84378e-05	1.63878e-05	2.44815e-05	4.05055e-05	2.09676e-05	0.840062	0.112093	3.56009	5.9147e-06	2.59783e-06	3.93432e-07	9.70196e-07	7.07886e-07	2.7506e-07	0.0208648	0.0532766	0.0572166	68.6131	2680.72	1049.86	2878.97	-21.3869	0.0000000E+000	0.0000000E+000	0.0000000E+000	21.3869	0.0000000E+000	0.0000000E+000	0.0000000E+000	-21.3869	0.0000000E+000	0.0000000E+000	0.0000000E+000	-68.6131	0.0000000E+000	0.0000000E+000	0.0000000E+000	68.6131	0.391632	21.3869	-2.03037e-07
999.682	13.6169	44.0816	46.1368	-72.834	636.734	0.459397	-0.000134216	3.61161	3.29701	1	39	0.0139027	0.000301337	0	-9.90507e-06	0.65371	0.206113	9.37328	5.55904e-05	4.01544e-05	1.71565e-05	2.3512e-05	3.34656e-05	2.52529e-05	1.22223	0.126481	4.48257	2.98703e-06	1.96611e-06	2.60908e-07	5.95075e-07	3.1116e-07	3.37652e-07	0.00639707	0.0207091	0.0216747	72.834	3297.01	1018.45	3450.73	-17.166	0.0000000E+000	0.0000000E+000	0.0000000E+000	17.166	0.0000000E+000	0.0000000E+000	0.0000000E+000	-17.166	0.0000000E+000	0.0000000E+000	0.0000000E+000	-72.834	0.0000000E+000	0.0000000E+000	0.0000000E+000	72.834	0.308901	17.166	-2.99466e-07
316.316	36.0832	114.186	119.751	-72.4632	642.263	0.459398	2.30831e-05	4.40644	4.00637	1	39	0.0128504	0.000107309	0	-1.01129e-05	0.451162	0.32575	10.0786	1.90027e-05	2.56911e-05	1.76765e-05	2.45966e-05	2.91972e-05	1.92582e-05	1.08667	0.473389	12.5201	7.96684e-07	6.01198e-07	2.60522e-07	2.85245e-07	3.74679e-07	1.58645e-07	0.0025162	0.00796254	0.00835065	72.4632	4006.37	1266.03	4201.64	-17.5368	0.0000000E+000	0.0000000E+000	0.0000000E+000	17.5368	0.0000000E+000	0.0000000E+000	0.0000000E+000	-17.5368	0.0000000E+000	0.0000000E+000	0.0000000E+000	-72.4632	0.0000000E+000	0.0000000E+000	0.0000000E+000	72.4632	0.316005	17.5368	-1.33845e-07
[...]
9.99682	1015.21	1316.46	1662.44	-52.3617	659.274	0.45939	-8.90106e-05	12.0935	7.58353	1	41	0.014111	8.48812e-06	0	-1.04951e-05	1.06856	0.526089	18.0988	5.53541e-05	4.60929e-05	6.9744e-05	6.40391e-05	4.28892e-05	5.60725e-05	0.993155	0.179359	5.85855	6.87025e-08	2.89754e-08	1.58717e-08	3.08723e-08	7.46267e-09	1.26764e-08	0.000367336	0.000476336	0.000601524	52.3617	7583.53	5848.2	9576.6	-37.6383	0.0000000E+000	0.0000000E+000	0.0000000E+000	37.6383	0.0000000E+000	0.0000000E+000	0.0000000E+000	-37.6383	0.0000000E+000	0.0000000E+000	0.0000000E+000	-52.3617	0.0000000E+000	0.0000000E+000	0.0000000E+000	52.3617	0.77117	37.6384	-5.50131e-08
3.16296	2473.16	1671.54	2985.06	-34.0536	667.715	0.459435	-9.6787e-05	30.1031	9.43925	1	41	0.0141139	4.7282e-06	0	-1.07313e-05	0.461655	0.208228	7.88865	2.89701e-05	1.33758e-05	1.78748e-05	2.45566e-05	3.29364e-05	3.0129e-05	0.903211	0.118399	4.85019	3.61222e-08	1.95488e-08	2.52373e-09	7.24848e-09	5.35152e-09	4.9884e-09	0.000277554	0.00018759	0.000335002	34.0536	9439.25	13966.1	16856.8	-55.9464	0.0000000E+000	0.0000000E+000	0.0000000E+000	55.9464	0.0000000E+000	0.0000000E+000	0.0000000E+000	-55.9464	0.0000000E+000	0.0000000E+000	0.0000000E+000	-34.0536	0.0000000E+000	0.0000000E+000	0.0000000E+000	34.0536	1.47957	55.9464	-4.49605e-08
1.00006	3745.61	1172.47	3924.83	-17.3814	691.464	0.459438	-9.81382e-05	135.735	12.113	1	42	0.0140994	3.59236e-06	0	-1.13301e-05	0.271101	0.147002	4.37896	1.69435e-05	1.68898e-05	1.5718e-05	1.68739e-05	1.05153e-05	1.00011e-05	0.846468	0.0576532	1.11595	2.74331e-08	1.24411e-08	8.88569e-10	3.85726e-09	7.64673e-10	4.17344e-10	0.000243154	7.6113e-05	0.000254788	17.3814	12113	38696.7	40548.3	-72.6186	0.0000000E+000	0.0000000E+000	0.0000000E+000	72.6186	0.0000000E+000	0.0000000E+000	0.0000000E+000	-72.6186	0.0000000E+000	0.0000000E+000	0.0000000E+000	-17.3814	0.0000000E+000	0.0000000E+000	0.0000000E+000	17.3814	3.19464	72.6186	-2.66826e-07
0.316193	4351.07	637.628	4397.54	-8.33708	757.26	0.459432	-9.76832e-05	789.407	16.5965	1	42	0.0140899	3.20404e-06	0	-1.32264e-05	0.171442	0.0675547	2.39602	1.0482e-05	1.08173e-05	5.97836e-06	1.31615e-05	9.0117e-06	4.95085e-06	0.848521	0.0454657	1.24003	2.47761e-08	1.0747e-08	2.74392e-10	3.05107e-09	3.55992e-10	3.24096e-10	0.000224997	3.29722e-05	0.0002274	8.33708	16596.5	113252	114461	-81.6629	0.0000000E+000	0.0000000E+000	0.0000000E+000	81.6629	0.0000000E+000	0.0000000E+000	0.0000000E+000	-81.6629	0.0000000E+000	0.0000000E+000	0.0000000E+000	-8.33708	0.0000000E+000	0.0000000E+000	0.0000000E+000	8.33708	6.82383	81.6629	-3.36829e-07
0.0999518	4605.56	284.925	4614.36	-3.54012	961.843	0.45943	-9.32614e-05	5588.55	21.3077	1	42	0.0140878	3.05304e-06	0	-1.99861e-05	0.100585	0.0512716	1.40138	3.85947e-06	6.97582e-06	5.61402e-06	7.48278e-06	5.3791e-06	3.0874e-06	0.869998	0.053189	1.35482	2.45152e-08	9.97771e-09	3.12583e-10	2.16821e-09	2.55477e-10	1.44643e-10	0.000216301	1.33816e-05	0.000216715	3.54012	21307.7	344420	345079	-86.4599	0.0000000E+000	0.0000000E+000	0.0000000E+000	86.4599	0.0000000E+000	0.0000000E+000	0.0000000E+000	-86.4599	0.0000000E+000	0.0000000E+000	0.0000000E+000	-3.54012	0.0000000E+000	0.0000000E+000	0.0000000E+000	3.54012	16.1641	86.4599	-2.3124e-06