Folder: Thesis/Python/Data/RDE (part 2)

File: 240219-CV-EIS-Fe2Fe3_5mM-HCl1M-226RPM-Ag_AgCl_BLF8-GC-RDE_01_CV_C15.mpt
EC-Lab ASCII FILE
Nb header lines : 60

Cyclic Voltammetry

Run on channel : 15 (SN 19485)
User :
Electrode connection : standard
Potential control : Ewe
Ewe ctrl range : min = -1.00 V, max = 1.00 V
Ewe,I filtering : <None>
Safety Limits :
	Do not start on E overload
Channel : Floating
Acquisition started on : 02/19/2024 15:22:59.145
Loaded Setting File :  NONE
Saved on :
	File : 240219-CV-EIS-Fe2Fe3_5mM-HCl1M-226RPM-Ag_AgCl_BLF8-GC-RDE_01_CV_C15.mpr
	Directory : C:\Data\mathias\RDE-RPM-variation\
	Host : 192.168.0.1
Device : VMP-300 (SN 0826)
Address : USB
EC-Lab for windows v11.52 (software)
Internet server v11.52 (firmware)
Command interpretor v11.52 (firmware)
Electrode material :
Initial state :
Electrolyte :
Comments :
Cable : special
Electrode surface area : 0.001 cm²
Characteristic mass : 0.001 g
Equivalent Weight : 0.000 g/eq.
Density : 0.000 g/cm3
Volume (V) : 0.001 cm³
Record EIS quality indicators
Cycle Definition : Charge/Discharge alternance
Ei (V)              0.000
vs.                 Eoc
dE/dt               20.000
dE/dt unit          mV/s
E1 (V)              1.000
vs.                 Ref
Step percent        50
N                   10
E range min (V)     -1.000
E range max (V)     1.000
I Range             Auto
I Range min         Unset
I Range max         Unset
I Range init        Unset
Bandwidth           8
E2 (V)              0.000
vs.                 Ref
nc cycles           2
Reverse Scan        1
Ef (V)              0.000
vs.                 Eoc

mode	ox/red	error	control changes	counter inc.	time/s	control/V	Ewe/V	<I>/mA	cycle number	(Q-Qo)/C	I Range	step time/s	P/W
2	1	0	1	0	0.000000000000000E+000	0.46309	0.46273	0.000508379	1	0.0000000E+000	43	0.000000000000000E+000	2.35242e-07
2	1	0	1	0	2.4976	0.513041	0.512702	0.0141992	1	1.78734e-05	41	2.4838	7.27996e-06
2	1	0	1	0	4.9465	0.562017	0.561777	0.0344742	1	7.564e-05	41	4.9327	1.93668e-05
2	1	0	1	0	7.3953	0.610994	0.610682	0.0657791	1	0.000196518	41	7.3815	4.01701e-05
2	1	0	1	0	9.8441	0.659971	0.659727	0.102734	1	0.000403227	41	9.8303	6.77763e-05
2	1	0	1	0	12.323	0.709547	0.709187	0.134522	1	0.00069975	40	12.3092	9.54015e-05
2	1	0	1	0	14.7718	0.758524	0.758269	0.157455	1	0.00105864	40	14.758	0.000119393
2	1	0	1	0	17.2206	0.807501	0.807287	0.174295	1	0.0014694	40	17.2068	0.000140706
2	1	0	1	0	19.6695	0.856477	0.856228	0.182112	1	0.00190714	40	19.6557	0.000155929
2	1	0	1	0	22.1183	0.905454	0.905166	0.187497	1	0.00236067	40	22.1045	0.000169716
2	1	0	1	0	24.5671	0.954431	0.954011	0.190379	1	0.00282453	40	24.5533	0.000181623
2	1	0	1	0	26.9842	0.99721	0.996877	0.190125	1	0.00328757	40	26.9704	0.000189531
2	1	0	1	0	29.433	0.948234	0.947879	0.189731	1	0.00375261	40	29.4192	0.000179842
2	1	0	1	0	31.8818	0.899257	0.89896	0.182731	1	0.00420881	40	31.868	0.000164267
2	1	0	1	0	34.3307	0.85028	0.849945	0.174463	1	0.00464745	40	34.3169	0.000148284
2	1	0	1	0	36.7795	0.801304	0.801058	0.160791	1	0.00505974	40	36.7657	0.000128803
2	1	0	1	0	39.2284	0.752326	0.751976	0.1426	1	0.00543054	40	39.2146	0.000107231
2	1	0	1	0	41.6772	0.70335	0.703058	0.116386	1	0.0057498	40	41.6634	8.18261e-05
2	1	0	1	0	44.126	0.654373	0.653983	0.084999	1	0.00599638	40	44.1122	5.55879e-05
2	1	0	1	0	46.5749	0.605397	0.6051	0.0517237	1	0.00616293	40	46.5611	3.1298e-05
2	1	0	1	0	49.0537	0.55582	0.555418	0.0264574	1	0.00625756	41	49.0399	1.46949e-05
2	1	0	1	0	51.5025	0.506844	0.506453	0.00989395	1	0.00630028	41	51.4887	5.01082e-06
2	0	0	1	0	54.0413	0.456068	0.455802	-0.00260486	1	0.00630896	42	0.5297	-1.1873e-06
2	0	0	1	0	56.5201	0.406491	0.406147	-0.0158944	1	0.0062869	41	3.0085	-6.45548e-06
2	0	0	1	0	58.969	0.357515	0.357309	-0.0367318	1	0.00622446	41	5.4574	-1.31246e-05
2	0	0	1	0	61.4178	0.308538	0.308251	-0.0683719	1	0.00609765	41	7.9062	-2.10757e-05
2	0	0	1	0	63.8666	0.259561	0.259123	-0.104955	1	0.00588513	41	10.355	-2.71963e-05
2	0	0	1	0	66.3455	0.209985	0.209762	-0.134587	1	0.00558621	40	12.8339	-2.82311e-05
2	0	0	1	0	68.7943	0.161008	0.160684	-0.154127	1	0.00522914	40	15.2827	-2.47658e-05
2	0	0	1	0	71.2431	0.112031	0.111803	-0.163798	1	0.00483748	40	17.7315	-1.83131e-05
2	0	0	1	0	73.692	0.0630547	0.062983	-0.17151	1	0.00442619	40	20.1804	-1.08022e-05
2	0	0	1	0	76.1408	0.014078	0.0137926	-0.176105	1	0.00400028	40	22.6292	-2.42894e-06
2	0	0	1	1	78.5578	0.0342684	0.0341066	-0.170514	1	0.00357762	40	25.0462	-5.81566e-06
2	0	0	1	1	81.0066	0.0832442	0.0830477	-0.165698	1	0.00316778	40	27.495	-1.37609e-05
2	0	0	1	1	83.4555	0.132222	0.131938	-0.153473	1	0.00277664	40	29.9439	-2.02489e-05
2	0	0	1	1	85.9043	0.181198	0.18092	-0.138362	1	0.00241694	40	32.3927	-2.50324e-05
2	0	0	1	1	88.3532	0.230175	0.229908	-0.11383	1	0.00210725	40	34.8416	-2.61704e-05
2	0	0	1	1	90.802	0.279152	0.278888	-0.082506	1	0.00186531	40	37.2904	-2.301e-05
2	0	0	1	1	93.2508	0.328129	0.327825	-0.0501197	1	0.00170383	40	39.7392	-1.64305e-05
2	0	0	1	1	95.7296	0.377704	0.3771	-0.0247387	1	0.00161296	41	42.218	-9.32897e-06
2	0	0	1	1	98.1785	0.426682	0.42628	-0.00795915	1	0.00157447	41	44.6669	-3.39283e-06
2	1	0	1	1	100.632	0.475758	0.475504	0.00468323	2	0.00157074	42	0.8995	2.2269e-06
2	1	0	1	1	103.111	0.525335	0.525079	0.0194536	2	0.00159966	41	3.3783	1.02147e-05
2	1	0	1	1	105.56	0.574312	0.574003	0.0421734	2	0.00167319	41	5.8272	2.42076e-05
2	1	0	1	1	108.009	0.623288	0.623195	0.0755082	2	0.00181551	41	8.276	4.70564e-05
2	1	0	1	1	110.488	0.672865	0.672371	0.112015	2	0.00204876	40	10.7548	7.53158e-05
2	1	0	1	1	112.936	0.721841	0.721583	0.140509	2	0.00236053	40	13.2037	0.000101389
2	1	0	1	1	115.385	0.770818	0.770599	0.162011	2	0.002733	40	15.6525	0.000124845
2	1	0	1	1	117.834	0.819795	0.819373	0.176035	2	0.00314946	40	18.1013	0.000144238
2	1	0	1	1	120.283	0.868771	0.868497	0.183194	2	0.00359018	40	20.5502	0.000159104
2	1	0	1	1	122.732	0.917748	0.9174	0.189586	2	0.00405014	40	22.999	0.000173927
2	1	0	1	1	125.181	0.966725	0.966353	0.191422	2	0.0045175	40	25.4478	0.000184982
2	1	0	1	1	127.608	0.984716	0.984233	0.191178	2	0.00498443	40	27.8749	0.000188163
2	1	0	1	1	130.056	0.93574	0.935519	0.185592	2	0.00544547	40	30.3237	0.000173625
2	1	0	1	1	132.505	0.886762	0.886383	0.182791	2	0.00589494	40	32.7726	0.000162022
2	1	0	1	1	134.954	0.837786	0.83764	0.173129	2	0.00633069	40	35.2214	0.00014502
2	1	0	1	1	137.403	0.788809	0.788565	0.158503	2	0.00673651	40	37.6702	0.00012499
2	1	0	1	1	139.852	0.739833	0.739528	0.136561	2	0.00709643	40	40.1191	0.000100991
2	1	0	1	1	142.301	0.690856	0.690678	0.109364	2	0.00739988	40	42.5679	7.55353e-05
2	1	0	1	1	144.749	0.641879	0.641612	0.0764572	2	0.00762789	40	45.0167	4.90559e-05
2	1	0	1	1	147.198	0.592903	0.592631	0.044908	2	0.00777533	40	47.4656	2.66139e-05
2	1	0	1	1	149.677	0.543326	0.542941	0.0216858	2	0.0078556	41	49.9444	1.17741e-05
2	1	0	1	1	152.126	0.49435	0.494003	0.00666265	2	0.00788885	41	52.3932	3.29137e-06
2	0	0	1	1	154.605	0.444773	0.444383	-0.00537716	2	0.00789024	42	1.0994	-2.38952e-06
2	0	0	1	1	157.084	0.395197	0.394945	-0.0200581	2	0.00785991	41	3.5783	-7.92184e-06
2	0	0	1	1	159.532	0.34622	0.346149	-0.0435481	2	0.00778416	41	6.0271	-1.50741e-05
2	0	0	1	1	161.981	0.297243	0.296965	-0.0775124	2	0.00763763	41	8.4759	-2.30184e-05
2	0	0	1	1	164.46	0.247667	0.247577	-0.113538	2	0.00739958	40	10.9548	-2.81095e-05
2	0	0	1	1	166.909	0.19869	0.198225	-0.14091	2	0.00708574	40	13.4036	-2.79319e-05
[...]
2	0	0	1	0	196.303	0.3892	0.389062	-0.0203581	2	0.00316735	41	42.7978	-7.92057e-06
2	0	0	1	0	198.752	0.438176	0.437905	-0.00490257	2	0.00313778	41	45.2466	-2.14686e-06
2	1	0	1	0	201.206	0.487253	0.486977	0.00775286	3	0.00314124	42	1.4742	3.77546e-06
2	1	0	1	0	203.685	0.536829	0.53661	0.0239713	3	0.00317928	41	3.9531	1.28633e-05
2	1	0	1	0	206.133	0.585806	0.585601	0.0493183	3	0.0032669	41	6.4019	2.88808e-05
2	1	0	1	0	208.582	0.634783	0.634479	0.0844464	3	0.00342986	41	8.8507	5.35795e-05
2	1	0	1	0	211.061	0.684359	0.683984	0.119526	3	0.00368418	40	11.3296	8.17537e-05
2	1	0	1	0	213.51	0.733336	0.732917	0.147829	3	0.00401262	40	13.7784	0.000108347
2	1	0	1	0	215.959	0.782313	0.782051	0.164539	3	0.00439669	40	16.2272	0.000128678
2	1	0	1	0	218.408	0.831289	0.830991	0.176575	3	0.00482131	40	18.6761	0.000146732
2	1	0	1	0	220.856	0.880266	0.879958	0.186385	3	0.00526772	40	21.1249	0.000164011
2	1	0	1	0	223.305	0.929243	0.929058	0.188384	3	0.0057274	40	23.5737	0.000175019
2	1	0	1	0	225.754	0.978219	0.977873	0.192362	3	0.00619646	40	26.0226	0.000188106
2	1	0	1	0	228.181	0.973222	0.972833	0.190447	3	0.00666211	40	28.4496	0.000185273
2	1	0	1	0	230.63	0.924245	0.923951	0.185743	3	0.00712091	40	30.8984	0.000171617
2	1	0	1	0	233.079	0.875268	0.875012	0.178393	3	0.00756771	40	33.3473	0.000156096
2	1	0	1	0	235.528	0.826292	0.826008	0.169276	3	0.0079947	40	35.7961	0.000139824
2	1	0	1	0	237.977	0.777314	0.777031	0.154225	3	0.00839231	40	38.245	0.000119837
2	1	0	1	0	240.425	0.728338	0.728038	0.131335	3	0.0087431	40	40.6938	9.56172e-05
2	1	0	1	0	242.874	0.679362	0.679019	0.102556	3	0.00903117	40	43.1426	6.96377e-05
2	1	0	1	0	245.323	0.630385	0.630268	0.0689797	3	0.00924125	40	45.5915	4.34757e-05
2	1	0	1	0	247.802	0.580808	0.580466	0.0385465	3	0.00937253	41	48.0703	2.23749e-05
2	1	0	1	0	250.251	0.531832	0.531405	0.0177104	3	0.00943925	41	50.5191	9.41138e-06
2	1	0	1	0	252.729	0.482255	0.482072	0.00359973	3	0.00946452	42	52.9979	1.73533e-06
2	0	0	1	0	255.178	0.433279	0.433024	-0.00833374	3	0.00945892	42	1.6742	-3.60871e-06
2	0	0	1	0	257.657	0.383702	0.383268	-0.0247443	3	0.00941946	41	4.153	-9.48371e-06
2	0	0	1	0	260.106	0.334725	0.334543	-0.0509581	3	0.009329	41	6.6018	-1.70477e-05
2	0	0	1	0	262.555	0.285749	0.285266	-0.0863561	3	0.0091618	41	9.0507	-2.46344e-05
2	0	0	1	0	265.034	0.236172	0.235871	-0.120458	3	0.00890355	40	11.5295	-2.84126e-05
2	0	0	1	0	267.482	0.187196	0.187073	-0.14463	3	0.00857637	40	13.9783	-2.70564e-05
2	0	0	1	0	269.931	0.138219	0.138059	-0.160195	3	0.00819975	40	16.4272	-2.21163e-05
2	0	0	1	0	272.38	0.0892422	0.0889948	-0.167592	3	0.00779533	40	18.876	-1.49148e-05
2	0	0	1	0	274.829	0.0402655	0.040128	-0.170666	3	0.00737874	40	21.3248	-6.84848e-06
2	0	0	1	1	277.256	0.00828073	0.00800156	-0.173912	3	0.00695588	40	23.7518	-1.39157e-06
2	0	0	1	1	279.705	0.0572574	0.0569137	-0.167818	3	0.00653649	40	26.2007	-9.55111e-06
2	0	0	1	1	282.154	0.106234	0.105999	-0.160912	3	0.00613594	40	28.6495	-1.70566e-05
2	0	0	1	1	284.602	0.155211	0.15485	-0.14948	3	0.00575472	40	31.0983	-2.31469e-05
2	0	0	1	1	287.051	0.204188	0.203918	-0.129579	3	0.00541181	40	33.5472	-2.64234e-05
2	0	0	1	1	289.5	0.253164	0.253052	-0.101039	3	0.0051277	40	35.996	-2.55681e-05
2	0	0	1	1	291.949	0.302141	0.302034	-0.0677183	3	0.0049211	40	38.4448	-2.04532e-05
2	0	0	1	1	294.428	0.351717	0.351573	-0.0373928	3	0.00479259	41	40.9237	-1.31463e-05
2	0	0	1	1	296.877	0.400694	0.400551	-0.0161833	3	0.00472898	41	43.3725	-6.48224e-06
2	0	0	1	1	299.355	0.45027	0.450076	-0.00175645	3	0.00470782	42	45.8513	-7.90536e-07
2	1	0	1	1	299.939	0.46194	0.461882	0.00122017	3	0.00470766	42	0.2084	5.63574e-07

File: 240219-CV-EIS-Fe2Fe3_5mM-HCl1M-226RPM-Ag_AgCl_BLF8-GC-RDE_03_PEIS_C15.mpt
EC-Lab ASCII FILE
Nb header lines : 66

Potentio Electrochemical Impedance Spectroscopy

Run on channel : 15 (SN 19485)
User :
Electrode connection : standard
Potential control : Ewe
Ewe ctrl range : min = -1.00 V, max = 1.00 V
Ewe,I filtering : <None>
Safety Limits :
	Do not start on E overload
Channel : Floating
Acquisition started on : 02/19/2024 15:22:59.145
Loaded Setting File :  NONE
Saved on :
	File : 240219-CV-EIS-Fe2Fe3_5mM-HCl1M-226RPM-Ag_AgCl_BLF8-GC-RDE_03_PEIS_C15.mpr
	Directory : C:\Data\mathias\RDE-RPM-variation\
	Host : 192.168.0.1
Device : VMP-300 (SN 0826)
Address : USB
EC-Lab for windows v11.52 (software)
Internet server v11.52 (firmware)
Command interpretor v11.52 (firmware)
Electrode material :
Initial state :
Electrolyte :
Comments :
Cable : special
Electrode surface area : 0.001 cm²
Characteristic mass : 0.001 g
Equivalent Weight : 0.000 g/eq.
Density : 0.000 g/cm3
Volume (V) : 0.001 cm³
Record EIS quality indicators
Cycle Definition : Charge/Discharge alternance
Mode                Single sine
E (V)               0.0000
vs.                 Ref
tE (h:m:s)          0:00:0.0000
record              0
dI                  0.000
unit dI             mA
dt (s)              0.000
fi                  400.000
unit fi             kHz
ff                  100.000
unit ff             mHz
Nd                  10
Points              per decade
spacing             Logarithmic
Va (mV)             7.0
pw                  0.10
Na                  3
corr                0
E range min (V)     -1.000
E range max (V)     1.000
I Range             Auto
Bandwidth           8
nc cycles           2
goto Ns'            0
nr cycles           0
inc. cycle          1

freq/Hz	Re(Z)/Ohm	-Im(Z)/Ohm	|Z|/Ohm	Phase(Z)/deg	time/s	<Ewe>/V	<I>/mA	Cs/µF	Cp/µF	cycle number	I Range	|Ewe|/V	|I|/A	Ns	(Q-Qo)/mA.h	THD Ewe/%	NSD Ewe/%	NSR Ewe/%	|Ewe h2|/V	|Ewe h3|/V	|Ewe h4|/V	|Ewe h5|/V	|Ewe h6|/V	|Ewe h7|/V	THD I/%	NSD I/%	NSR I/%	|I h2|/A	|I h3|/A	|I h4|/A	|I h5|/A	|I h6|/A	|I h7|/A	Re(Y)/Ohm-1	Im(Y)/Ohm-1	|Y|/Ohm-1	Phase(Y)/deg	Re(C)/nF	Im(C)/nF	|C|/nF	Phase(C)/deg	Re(M)	Im(M)	|M|	Phase(M)/deg	Re(Permittivity)	Im(Permittivity)	|Permittivity|	Phase(Permittivity)/deg	Re(Resistivity)/Ohm.cm	Im(Resistivity)/Ohm.cm	|Resistivity|/Ohm.cm	Phase(Resistivity)/deg	Re(Conductivity)/mS/cm	Im(Conductivity)/mS/cm	|Conductivity|/mS/cm	Phase(Conductivity)/deg	Tan(Delta)	Loss Angle(Delta)/deg	dq/mA.h
399996	3.77494	1.29007	3.9893	-18.8677	362.417	-0.000161807	-0.187719	0.308425	0.0322542	1	38	0.00647521	0.00162315	0	-0.000127577	-1	-1	-1	0	0	0	0	0	0	-1	-1	-1	0	0	0	0	0	0	0.237202	0.0810629	0.250671	18.8677	32.2542	94.3805	99.7397	-71.1323	0.0000000E+000	0.0000000E+000	0.0000000E+000	71.1323	0.0000000E+000	0.0000000E+000	0.0000000E+000	-71.1323	0.0000000E+000	0.0000000E+000	0.0000000E+000	-18.8677	0.0000000E+000	0.0000000E+000	0.0000000E+000	18.8677	2.92614	71.1323	-0.000127577
20032.3	3.87356	2.36147	4.53663	-31.3681	377.329	-0.000117349	-0.183254	3.3644	0.911603	1	38	0.00727978	0.00160467	0	-0.000890066	0.664936	0.688149	13.8617	2.0784e-05	2.47538e-05	1.28588e-05	1.74489e-05	2.02278e-05	1.36529e-05	0.0855659	0.239089	1.74553	9.3874e-07	3.13637e-07	1.66101e-07	6.4612e-07	2.78367e-07	4.16387e-07	0.188211	0.11474	0.220428	31.3681	911.602	1495.32	1751.28	-58.6319	0.0000000E+000	0.0000000E+000	0.0000000E+000	58.6319	0.0000000E+000	0.0000000E+000	0.0000000E+000	-58.6319	0.0000000E+000	0.0000000E+000	0.0000000E+000	-31.3681	0.0000000E+000	0.0000000E+000	0.0000000E+000	31.3681	1.64032	58.6319	-5.77225e-05
1002.75	12.055	33.0967	35.2238	-69.9865	392.522	-0.000234115	-0.175415	4.79559	4.23389	1	39	0.00704972	0.000200141	0	-0.00164477	0.768272	0.405198	14.2247	1.95028e-05	1.63444e-05	2.41477e-05	2.61227e-05	1.97987e-05	1.55445e-05	0.563456	0.191327	6.21652	4.3809e-07	7.3081e-07	1.6314e-07	5.28612e-07	2.87931e-07	1.97414e-07	0.00971618	0.0266755	0.0283899	69.9865	4233.89	1542.14	4505.99	-20.0135	0.0000000E+000	0.0000000E+000	0.0000000E+000	20.0135	0.0000000E+000	0.0000000E+000	0.0000000E+000	-20.0135	0.0000000E+000	0.0000000E+000	0.0000000E+000	-69.9865	0.0000000E+000	0.0000000E+000	0.0000000E+000	69.9865	0.364236	20.0135	-6.43909e-05
50.2089	154.029	327.737	362.127	-64.8276	407.284	-0.000256931	-0.174907	9.67196	7.92214	1	40	0.00693763	1.9158e-05	0	-0.00235364	1.5225	0.972942	28.2384	3.33644e-05	4.3553e-05	4.57472e-05	1.98674e-05	4.30226e-05	5.64336e-05	0.836688	0.49378	13.5817	8.4644e-08	6.08746e-08	6.82339e-08	5.92935e-08	5.68811e-08	4.78006e-08	0.00117457	0.00249921	0.00276146	64.8276	7922.14	3723.22	8753.43	-25.1724	0.0000000E+000	0.0000000E+000	0.0000000E+000	25.1724	0.0000000E+000	0.0000000E+000	0.0000000E+000	-25.1724	0.0000000E+000	0.0000000E+000	0.0000000E+000	-64.8276	0.0000000E+000	0.0000000E+000	0.0000000E+000	64.8276	0.469976	25.1724	-5.1346e-05
2.51368	1456.19	2098.55	2554.29	-55.2431	426.031	-0.00023036	-0.173245	30.1712	20.3653	1	40	0.00690533	2.70343e-06	0	-0.00325149	0.465514	0.287196	10.595	7.13588e-06	1.90388e-05	9.54694e-06	1.16533e-05	1.43544e-05	9.97555e-06	3.70095	11.7807	36.9101	6.37188e-08	3.86001e-08	2.96835e-08	2.41451e-08	1.84746e-08	2.53684e-08	0.000223192	0.000321647	0.000391499	55.2431	20365.3	14131.5	24788	-34.7569	0.0000000E+000	0.0000000E+000	0.0000000E+000	34.7569	0.0000000E+000	0.0000000E+000	0.0000000E+000	-34.7569	0.0000000E+000	0.0000000E+000	0.0000000E+000	-55.2431	0.0000000E+000	0.0000000E+000	0.0000000E+000	55.2431	0.693904	34.7569	-0.000135209
0.125939	11783.3	-828.735	11812.4	4.02308	654.272	-0.000256783	-0.17381	-1524.91	-7.50591	1	40	0.00689619	5.83812e-07	0	-0.0142502	0.197432	0.113841	2.3261	4.18706e-06	6.48327e-06	3.62687e-06	6.93459e-06	4.50886e-06	4.64063e-06	222.923	246.815	234.089	5.65335e-07	4.84171e-07	1.56922e-07	1.3781e-07	1.49488e-07	1.0201e-07	8.44485e-05	-5.9394e-06	8.46571e-05	-4.02308	-7505.91	106722	106985	-94.0231	0.0000000E+000	0.0000000E+000	0.0000000E+000	94.0231	0.0000000E+000	0.0000000E+000	0.0000000E+000	-94.0231	0.0000000E+000	0.0000000E+000	0.0000000E+000	4.02308	0.0000000E+000	0.0000000E+000	0.0000000E+000	-4.02308	14.2184	85.9769	-0.00235235
31751	3.75177	1.71761	4.12625	-24.5989	730.535	-0.000168183	-0.176147	2.91836	0.505678	2	38	0.00725525	0.00175831	0	-0.0179235	0.663581	0.625303	13.7398	2.01263e-05	1.66516e-05	1.20295e-05	1.79275e-05	2.27216e-05	1.89457e-05	0.09583	0.129528	1.57938	7.97762e-07	5.89324e-07	4.69547e-07	1.0157e-06	2.58535e-07	4.62372e-07	0.220356	0.100882	0.242351	24.5989	505.678	1104.55	1214.8	-65.4011	0.0000000E+000	0.0000000E+000	0.0000000E+000	65.4011	0.0000000E+000	0.0000000E+000	0.0000000E+000	-65.4011	0.0000000E+000	0.0000000E+000	0.0000000E+000	-24.5989	0.0000000E+000	0.0000000E+000	0.0000000E+000	24.5989	2.1843	65.4011	-5.29719e-05
[...]
2519.19	6.84199	16.2459	17.6279	-67.1615	1098.03	-0.000241907	-0.176743	3.8888	3.30296	3	38	0.00655914	0.000372089	0	-0.0356218	0.898115	0.586785	15.4458	1.633e-05	2.28171e-05	2.68168e-05	2.23244e-05	1.95024e-05	2.22657e-05	0.497496	0.258226	7.55181	8.61432e-07	8.23064e-07	8.53502e-07	6.75596e-07	3.60261e-07	5.42735e-07	0.0220182	0.052281	0.0567283	67.1615	3302.96	1391.05	3583.93	-22.8385	0.0000000E+000	0.0000000E+000	0.0000000E+000	22.8385	0.0000000E+000	0.0000000E+000	0.0000000E+000	-22.8385	0.0000000E+000	0.0000000E+000	0.0000000E+000	-67.1615	0.0000000E+000	0.0000000E+000	0.0000000E+000	67.1615	0.421152	22.8385	-5.35813e-05
126.171	76.7832	178.469	194.285	-66.721	1112.88	-0.000230312	-0.173729	7.06803	5.96408	3	39	0.00675985	3.47935e-05	0	-0.0363339	0.842173	0.418805	14.9063	1.09283e-05	2.13402e-05	2.92585e-05	1.15931e-05	1.31986e-05	3.67463e-05	1.88647	0.926369	35.783	1.20672e-07	2.99236e-07	2.42444e-07	2.68341e-07	1.84864e-07	3.73459e-07	0.00203417	0.00472806	0.00514708	66.721	5964.08	2565.95	6492.63	-23.279	0.0000000E+000	0.0000000E+000	0.0000000E+000	23.279	0.0000000E+000	0.0000000E+000	0.0000000E+000	-23.279	0.0000000E+000	0.0000000E+000	0.0000000E+000	-66.721	0.0000000E+000	0.0000000E+000	0.0000000E+000	66.721	0.430234	23.279	-5.27055e-05
6.31569	872.93	1206.29	1489.01	-54.1087	1127.57	-0.000221886	-0.172605	20.8904	13.7106	3	40	0.00673826	4.52533e-06	0	-0.0370333	1.17494	0.596648	20.3425	4.14491e-05	2.05342e-05	3.58753e-05	2.17959e-05	2.45378e-05	2.67273e-05	2.8849	3.41243	40.0508	7.3528e-08	4.79885e-08	5.10259e-08	3.04992e-08	5.02356e-08	4.62515e-08	0.000393718	0.000544074	0.000671588	54.1087	13710.6	9921.67	16924	-35.8913	0.0000000E+000	0.0000000E+000	0.0000000E+000	35.8913	0.0000000E+000	0.0000000E+000	0.0000000E+000	-35.8913	0.0000000E+000	0.0000000E+000	0.0000000E+000	-54.1087	0.0000000E+000	0.0000000E+000	0.0000000E+000	54.1087	0.723648	35.8913	-6.54864e-05
0.316193	799.197	5806.05	5860.79	-82.1625	1221.27	-0.000218181	-0.17435	86.6937	85.0816	3	40	0.00674214	1.15038e-06	0	-0.0415409	0.230935	0.143024	3.88618	5.41081e-06	7.13605e-06	3.61492e-06	7.07978e-06	8.37698e-06	3.28323e-06	26.8677	69.4929	50.7237	2.49221e-07	9.19182e-08	8.70824e-08	5.19435e-08	4.35965e-08	3.27796e-08	2.3267e-05	0.000169032	0.000170625	82.1625	85081.6	11711.4	85883.9	-7.83746	0.0000000E+000	0.0000000E+000	0.0000000E+000	7.83746	0.0000000E+000	0.0000000E+000	0.0000000E+000	-7.83746	0.0000000E+000	0.0000000E+000	0.0000000E+000	-82.1625	0.0000000E+000	0.0000000E+000	0.0000000E+000	82.1625	0.137649	7.83746	-0.000944585
0.0999518	12735.1	-5417.14	13839.4	23.0435	1425.85	-0.000219494	-0.173481	-293.941	-45.0368	3	40	0.00674121	4.87104e-07	0	-0.0513838	0.208666	0.0615557	2.21072	5.04929e-06	7.35611e-06	4.97703e-06	7.86468e-06	3.76614e-06	3.20217e-06	259.91	187.199	276.582	5.20638e-07	3.46066e-07	4.2039e-07	1.89634e-07	2.36861e-07	9.66663e-08	6.64921e-05	-2.82838e-05	7.22577e-05	-23.0435	-45036.8	105876	115057	-113.043	0.0000000E+000	0.0000000E+000	0.0000000E+000	113.043	0.0000000E+000	0.0000000E+000	0.0000000E+000	-113.043	0.0000000E+000	0.0000000E+000	0.0000000E+000	23.0435	0.0000000E+000	0.0000000E+000	0.0000000E+000	-23.0435	2.35089	66.9565	-0.00295547