Folder: Thesis/Python/Data/RDE (part 15)

File: 240223-OCV-EIS-Fe2Fe3_5mM-HCl1M-625RPM-Ag_AgCl_BLF8-GC-RDE-1minRestVSEoc-3ppf-14p1mVAmplitude_05_OCV_C15.mpt
EC-Lab ASCII FILE
Nb header lines : 47

Open Circuit Voltage

Run on channel : 15 (SN 19485)
User :
Electrode connection : standard
Potential control : Ewe
Ewe ctrl range : min = -1.00 V, max = 1.00 V
Ewe,I filtering : 50 kHz
Safety Limits :
	Do not start on E overload
Channel : Floating
Acquisition started on : 02/23/2024 15:19:09.853
Loaded Setting File :  NONE
Saved on :
	File : 240223-OCV-EIS-Fe2Fe3_5mM-HCl1M-625RPM-Ag_AgCl_BLF8-GC-RDE-1minRestVSEoc-3ppf-14p1mVAmplitude_05_OCV_C15.mpr
	Directory : C:\Data\mathias\RDE-RPM-variation\
	Host : 192.168.0.1
Device : VMP-300 (SN 0826)
Address : USB
EC-Lab for windows v11.52 (software)
Internet server v11.52 (firmware)
Command interpretor v11.52 (firmware)
Electrode material :
Initial state :
Electrolyte :
Comments :
Cable : special
Reference electrode : SCE Saturated Calomel Electrode (0.241 V)
Electrode surface area : 0.001 cm²
Characteristic mass : 0.001 g
Equivalent Weight : 0.000 g/eq.
Density : 0.000 g/cm3
Volume (V) : 0.001 cm³
Record EIS quality indicators
Cycle Definition : Charge/Discharge alternance
tR (h:m:s)          0:01:0.0000
dER/dt (mV/h)       1.0
record              <Ewe>
dER (mV)            0.00
dtR (s)             0.5000
E range min (V)     -1.000
E range max (V)     1.000

mode	error	time/s	<Ewe/V>
3	0	962.343	0.458947
3	0	962.843	0.459437
3	0	963.343	0.459579
3	0	963.843	0.459633
3	0	964.343	0.459659
3	0	964.843	0.459674
3	0	965.343	0.459685
3	0	965.843	0.459692
3	0	966.343	0.459697
3	0	966.843	0.459699
3	0	967.343	0.459706
3	0	967.843	0.459705
3	0	968.343	0.459707
3	0	968.843	0.459707
3	0	969.343	0.45971
3	0	969.843	0.459708
3	0	970.343	0.459708
3	0	970.843	0.459709
3	0	971.343	0.459708
3	0	971.843	0.459712
3	0	972.343	0.459713
3	0	972.843	0.459712
3	0	973.343	0.459712
3	0	973.843	0.459713
3	0	974.343	0.459713
3	0	974.843	0.459713
3	0	975.343	0.459714
3	0	975.843	0.459713
3	0	976.343	0.459713
3	0	976.843	0.459714
3	0	977.343	0.459712
3	0	977.843	0.459711
3	0	978.343	0.459714
3	0	978.843	0.459715
3	0	979.343	0.459715
3	0	979.843	0.459715
3	0	980.343	0.459716
3	0	980.843	0.459719
3	0	981.343	0.459718
3	0	981.843	0.459717
3	0	982.343	0.459715
3	0	982.843	0.459719
3	0	983.343	0.459722
3	0	983.843	0.459718
3	0	984.343	0.459718
3	0	984.843	0.459721
3	0	985.343	0.459721
3	0	985.843	0.459721
3	0	986.343	0.459723
3	0	986.843	0.459726
3	0	987.343	0.459725
3	0	987.843	0.459724
3	0	988.343	0.459723
3	0	988.843	0.459721
3	0	989.343	0.459723
3	0	989.843	0.459722
3	0	990.343	0.459719
3	0	990.843	0.459722
3	0	991.343	0.459721
3	0	991.843	0.459721
3	0	992.343	0.459721
3	0	992.843	0.459722
3	0	993.343	0.459723
3	0	993.843	0.459724
3	0	994.343	0.459723
3	0	994.843	0.459722
3	0	995.343	0.459723
3	0	995.843	0.459724
3	0	996.343	0.459728
3	0	996.843	0.459726
3	0	997.343	0.459727
3	0	997.843	0.459729
3	0	998.343	0.459727
3	0	998.843	0.459729
3	0	999.343	0.459733
3	0	999.843	0.459735
3	0	1000.34	0.459734
3	0	1000.84	0.459734
3	0	1001.34	0.459733
3	0	1001.84	0.459732
3	0	1002.34	0.459729
3	0	1002.84	0.45973
3	0	1003.34	0.459729
3	0	1003.84	0.459729
3	0	1004.34	0.459728
3	0	1004.84	0.459724
3	0	1005.34	0.459724
3	0	1005.84	0.459727
3	0	1006.34	0.459729
3	0	1006.84	0.45973
3	0	1007.34	0.45973
3	0	1007.84	0.459731
3	0	1008.34	0.459732
3	0	1008.84	0.459733
3	0	1009.34	0.459735
3	0	1009.84	0.459735
3	0	1010.34	0.45973
3	0	1010.84	0.459729
3	0	1011.34	0.45973
3	0	1011.84	0.459726
3	0	1012.34	0.459726
3	0	1012.84	0.459729
3	0	1013.34	0.459733
3	0	1013.84	0.459735
3	0	1014.34	0.459732
3	0	1014.84	0.459734
3	0	1015.34	0.459733
3	0	1015.84	0.459735
3	0	1016.34	0.459734
3	0	1016.84	0.459736
3	0	1017.34	0.459737
3	0	1017.84	0.459737
3	0	1018.34	0.459735
3	0	1018.84	0.459731
3	0	1019.34	0.459727
3	0	1019.84	0.459728
3	0	1020.34	0.459727
3	0	1020.84	0.45973
3	0	1021.34	0.459733
3	0	1021.84	0.459734
3	0	1022	0.459736

File: 240223-OCV-EIS-Fe2Fe3_5mM-HCl1M-625RPM-Ag_AgCl_BLF8-GC-RDE-1minRestVSEoc-3ppf-14p1mVAmplitude_06_PEIS_C15.mpt
EC-Lab ASCII FILE
Nb header lines : 67

Potentio Electrochemical Impedance Spectroscopy

Run on channel : 15 (SN 19485)
User :
Electrode connection : standard
Potential control : Ewe
Ewe ctrl range : min = -1.00 V, max = 1.00 V
Ewe,I filtering : 50 kHz
Safety Limits :
	Do not start on E overload
Channel : Floating
Acquisition started on : 02/23/2024 15:19:09.853
Loaded Setting File :  NONE
Saved on :
	File : 240223-OCV-EIS-Fe2Fe3_5mM-HCl1M-625RPM-Ag_AgCl_BLF8-GC-RDE-1minRestVSEoc-3ppf-14p1mVAmplitude_06_PEIS_C15.mpr
	Directory : C:\Data\mathias\RDE-RPM-variation\
	Host : 192.168.0.1
Device : VMP-300 (SN 0826)
Address : USB
EC-Lab for windows v11.52 (software)
Internet server v11.52 (firmware)
Command interpretor v11.52 (firmware)
Electrode material :
Initial state :
Electrolyte :
Comments :
Cable : special
Reference electrode : SCE Saturated Calomel Electrode (0.241 V)
Electrode surface area : 0.001 cm²
Characteristic mass : 0.001 g
Equivalent Weight : 0.000 g/eq.
Density : 0.000 g/cm3
Volume (V) : 0.001 cm³
Record EIS quality indicators
Cycle Definition : Charge/Discharge alternance
Mode                Single sine
E (V)               0.0000
vs.                 Eoc
tE (h:m:s)          0:01:0.0000
record              0
dI                  0.000
unit dI             mA
dt (s)              0.000
fi                  1.000
unit fi             MHz
ff                  100.000
unit ff             mHz
Nd                  10
Points              per decade
spacing             Logarithmic
Va (mV)             14.1
pw                  0.10
Na                  3
corr                0
E range min (V)     -1.000
E range max (V)     1.000
I Range             Auto
Bandwidth           8
nc cycles           0
goto Ns'            0
nr cycles           0
inc. cycle          1

freq/Hz	Re(Z)/Ohm	-Im(Z)/Ohm	|Z|/Ohm	Phase(Z)/deg	time/s	<Ewe>/V	<I>/mA	Cs/µF	Cp/µF	cycle number	I Range	|Ewe|/V	|I|/A	Ns	(Q-Qo)/mA.h	THD Ewe/%	NSD Ewe/%	NSR Ewe/%	|Ewe h2|/V	|Ewe h3|/V	|Ewe h4|/V	|Ewe h5|/V	|Ewe h6|/V	|Ewe h7|/V	THD I/%	NSD I/%	NSR I/%	|I h2|/A	|I h3|/A	|I h4|/A	|I h5|/A	|I h6|/A	|I h7|/A	Re(Y)/Ohm-1	Im(Y)/Ohm-1	|Y|/Ohm-1	Phase(Y)/deg	Re(C)/nF	Im(C)/nF	|C|/nF	Phase(C)/deg	Re(M)	Im(M)	|M|	Phase(M)/deg	Re(Permittivity)	Im(Permittivity)	|Permittivity|	Phase(Permittivity)/deg	Re(Resistivity)/Ohm.cm	Im(Resistivity)/Ohm.cm	|Resistivity|/Ohm.cm	Phase(Resistivity)/deg	Re(Conductivity)/mS/cm	Im(Conductivity)/mS/cm	|Conductivity|/mS/cm	Phase(Conductivity)/deg	Tan(Delta)	Loss Angle(Delta)/deg	dq/mA.h
1.00002e+06	3.53269	4.08752	5.40257	-49.1644	1085.19	0.459503	-0.0104513	0.038936	0.022288	1	38	0.0111613	0.00206592	0	-7.75551e-06	-1	-1	-1	0	0	0	0	0	0	-1	-1	-1	0	0	0	0	0	0	0.121033	0.140042	0.185097	49.1644	22.288	19.2627	29.4586	-40.8356	0.0000000E+000	0.0000000E+000	0.0000000E+000	40.8356	0.0000000E+000	0.0000000E+000	0.0000000E+000	-40.8356	0.0000000E+000	0.0000000E+000	0.0000000E+000	-49.1644	0.0000000E+000	0.0000000E+000	0.0000000E+000	49.1644	0.864262	40.8356	-7.75551e-06
316230	3.43789	1.35918	3.69682	-21.5716	1090.79	0.459514	-0.00202598	0.370287	0.050054	1	38	0.0145456	0.00393462	0	1.06151e-05	-1	-1	-1	0	0	0	0	0	0	-1	-1	-1	0	0	0	0	0	0	0.251556	0.0994539	0.270503	21.5716	50.054	126.606	136.141	-68.4284	0.0000000E+000	0.0000000E+000	0.0000000E+000	68.4284	0.0000000E+000	0.0000000E+000	0.0000000E+000	-68.4284	0.0000000E+000	0.0000000E+000	0.0000000E+000	-21.5716	0.0000000E+000	0.0000000E+000	0.0000000E+000	21.5716	2.52938	68.4284	6.93071e-06
100004	3.42016	1.0605	3.5808	-17.2272	1096.52	0.459501	-0.00124955	1.5007	0.13163	1	38	0.0145874	0.00407379	0	6.22616e-07	0.468391	0.262439	9.15807	1.12708e-05	2.47088e-05	2.94344e-05	3.45055e-05	1.5961e-05	3.10124e-05	0.0637318	0.0480874	0.703355	1.86432e-06	1.22052e-06	5.73234e-07	7.71939e-07	4.49012e-07	4.05022e-07	0.266739	0.0827084	0.279267	17.2272	131.63	424.512	444.451	-72.7728	0.0000000E+000	0.0000000E+000	0.0000000E+000	72.7728	0.0000000E+000	0.0000000E+000	0.0000000E+000	-72.7728	0.0000000E+000	0.0000000E+000	0.0000000E+000	-17.2272	0.0000000E+000	0.0000000E+000	0.0000000E+000	17.2272	3.22505	72.7728	-1.24324e-08
31621.1	3.60841	2.15903	4.205	-30.8934	1102.26	0.459518	-0.00228107	2.33123	0.614566	1	38	0.014656	0.00348538	0	-1.25142e-05	0.516865	0.251512	9.02069	2.44802e-05	2.21437e-05	3.9684e-05	3.15851e-05	2.04178e-05	3.35915e-05	0.0706728	0.0913388	0.834592	9.1717e-07	1.39783e-06	1.05291e-06	8.64792e-07	6.14745e-07	6.16467e-07	0.204072	0.122103	0.237812	30.8934	614.566	1027.13	1196.95	-59.1066	0.0000000E+000	0.0000000E+000	0.0000000E+000	59.1066	0.0000000E+000	0.0000000E+000	0.0000000E+000	-59.1066	0.0000000E+000	0.0000000E+000	0.0000000E+000	-30.8934	0.0000000E+000	0.0000000E+000	0.0000000E+000	30.8934	1.67131	59.1066	-1.50604e-06
10002.2	4.22272	5.86179	7.2244	-54.2317	1108	0.4595	-0.00242822	2.71452	1.7871	1	38	0.0144949	0.00200638	0	-2.63013e-05	0.428382	0.306646	9.25595	3.41825e-05	2.68233e-05	2.62693e-05	1.38854e-05	1.41114e-05	1.92689e-05	0.22419	0.189682	1.46639	4.11541e-06	5.41488e-07	6.58997e-07	1.23952e-06	4.83724e-07	5.97317e-07	0.0809075	0.112312	0.13842	54.2317	1787.1	1287.4	2202.53	-35.7683	0.0000000E+000	0.0000000E+000	0.0000000E+000	35.7683	0.0000000E+000	0.0000000E+000	0.0000000E+000	-35.7683	0.0000000E+000	0.0000000E+000	0.0000000E+000	-54.2317	0.0000000E+000	0.0000000E+000	0.0000000E+000	54.2317	0.720382	35.7683	6.10478e-07
3163.04	6.37507	16.3372	17.537	-68.6834	1113.78	0.45939	-0.00180078	3.0799	2.6729	1	38	0.0139789	0.000797109	0	-3.25362e-05	0.492904	0.250284	9.43419	1.94928e-05	1.71928e-05	3.47983e-05	3.11172e-05	1.42634e-05	3.0206e-05	0.85642	0.0750659	3.63006	6.04652e-06	2.67691e-06	6.55466e-07	1.06281e-06	6.54201e-07	6.57404e-07	0.0207288	0.0531211	0.0570223	68.6834	2672.9	1043.01	2869.19	-21.3166	0.0000000E+000	0.0000000E+000	0.0000000E+000	21.3166	0.0000000E+000	0.0000000E+000	0.0000000E+000	-21.3166	0.0000000E+000	0.0000000E+000	0.0000000E+000	-68.6834	0.0000000E+000	0.0000000E+000	0.0000000E+000	68.6834	0.390217	21.3166	-9.03258e-07
999.682	13.6555	44.0991	46.1649	-72.7947	1119.56	0.459375	-0.000339606	3.61018	3.2943	1	39	0.0140358	0.000304037	0	-3.58272e-05	0.541885	0.267004	8.90962	3.16405e-05	4.55381e-05	1.72247e-05	2.09424e-05	2.98666e-05	2.78706e-05	1.17706	0.177909	4.16199	2.7605e-06	2.04157e-06	2.73748e-07	8.02198e-07	2.52339e-07	3.0729e-07	0.0064074	0.0206921	0.0216615	72.7947	3294.3	1020.09	3448.63	-17.2053	0.0000000E+000	0.0000000E+000	0.0000000E+000	17.2053	0.0000000E+000	0.0000000E+000	0.0000000E+000	-17.2053	0.0000000E+000	0.0000000E+000	0.0000000E+000	-72.7947	0.0000000E+000	0.0000000E+000	0.0000000E+000	72.7947	0.309654	17.2054	-1.78432e-07
316.316	36.7793	114.993	120.731	-72.2636	1125.09	0.4594	0.000185233	4.37552	3.96945	1	39	0.0130107	0.000107766	0	-3.61414e-05	0.590249	0.308162	9.78247	2.90477e-05	3.52496e-05	2.87079e-05	3.37772e-05	3.1165e-05	2.26757e-05	1.19968	0.490882	12.4314	8.20215e-07	6.12508e-07	3.79502e-07	4.85276e-07	2.2778e-07	2.81708e-07	0.00252328	0.00788917	0.00828287	72.2636	3969.45	1269.59	4167.54	-17.7364	0.0000000E+000	0.0000000E+000	0.0000000E+000	17.7364	0.0000000E+000	0.0000000E+000	0.0000000E+000	-17.7364	0.0000000E+000	0.0000000E+000	0.0000000E+000	-72.2636	0.0000000E+000	0.0000000E+000	0.0000000E+000	72.2636	0.319841	17.7364	-5.39473e-08
[...]
9.99682	1017.13	1326.27	1671.39	-52.5149	1141.88	0.45946	-8.67126e-05	12.004	7.55846	1	41	0.0128763	7.70391e-06	0	-3.67243e-05	0.949451	0.653319	19.1891	3.11077e-05	6.65707e-05	4.7659e-05	5.74e-05	3.59011e-05	4.32078e-05	0.968594	0.159413	6.30708	6.36827e-08	2.31815e-08	8.6372e-09	2.7207e-08	7.15059e-09	6.24402e-09	0.000364101	0.000474761	0.000598304	52.5149	7558.46	5796.69	9525.33	-37.4851	0.0000000E+000	0.0000000E+000	0.0000000E+000	37.4851	0.0000000E+000	0.0000000E+000	0.0000000E+000	-37.4851	0.0000000E+000	0.0000000E+000	0.0000000E+000	-52.5149	0.0000000E+000	0.0000000E+000	0.0000000E+000	52.5149	0.766913	37.4851	2.04005e-08
3.16296	2495.32	1679.38	3007.82	-33.9411	1150.32	0.459423	-8.33925e-05	29.9624	9.34059	1	41	0.0128802	4.28223e-06	0	-3.69784e-05	0.427257	0.242752	8.85875	2.12553e-05	2.4213e-05	1.31303e-05	2.83135e-05	1.81871e-05	1.76471e-05	0.878985	0.176215	5.46932	3.28093e-08	1.51716e-08	2.22372e-09	6.0497e-09	4.22281e-09	3.88276e-09	0.000275819	0.00018563	0.000332467	33.9411	9340.59	13878.8	16729.2	-56.0589	0.0000000E+000	0.0000000E+000	0.0000000E+000	56.0589	0.0000000E+000	0.0000000E+000	0.0000000E+000	-56.0589	0.0000000E+000	0.0000000E+000	0.0000000E+000	-33.9411	0.0000000E+000	0.0000000E+000	0.0000000E+000	33.9411	1.48585	56.0589	-1.34334e-07
1.00006	3775.98	1189.47	3958.9	-17.485	1173.75	0.459433	-8.54333e-05	133.795	12.0781	1	42	0.0128734	3.25176e-06	0	-3.73345e-05	0.234932	0.183303	4.79074	1.05505e-05	1.1978e-05	9.84059e-06	8.92565e-06	1.39056e-05	1.40504e-05	0.758806	0.0343824	1.20544	2.19661e-08	1.05218e-08	1.94732e-10	3.85183e-09	5.83219e-10	5.79813e-10	0.000240925	7.58938e-05	0.000252596	17.485	12078.1	38342	40199.4	-72.515	0.0000000E+000	0.0000000E+000	0.0000000E+000	72.515	0.0000000E+000	0.0000000E+000	0.0000000E+000	-72.515	0.0000000E+000	0.0000000E+000	0.0000000E+000	-17.485	0.0000000E+000	0.0000000E+000	0.0000000E+000	17.485	3.1745	72.515	4.0964e-08
0.316193	4391.76	642.839	4438.56	-8.32747	1239.54	0.459425	-8.19682e-05	783.007	16.4243	1	42	0.0128657	2.89863e-06	0	-3.93989e-05	0.150301	0.0961896	2.60371	4.64651e-06	1.03934e-05	4.59901e-06	8.52024e-06	5.91096e-06	8.19624e-06	0.769454	0.0334323	1.35465	2.05415e-08	8.2522e-09	2.6671e-10	2.65337e-09	3.02426e-10	3.69252e-10	0.000222923	3.26301e-05	0.000225298	8.32747	16424.3	112208	113403	-81.6725	0.0000000E+000	0.0000000E+000	0.0000000E+000	81.6725	0.0000000E+000	0.0000000E+000	0.0000000E+000	-81.6725	0.0000000E+000	0.0000000E+000	0.0000000E+000	-8.32747	0.0000000E+000	0.0000000E+000	0.0000000E+000	8.32747	6.83181	81.6725	-7.50511e-07
0.0999518	4648.8	288.233	4657.73	-3.54789	1444.13	0.459445	-8.1759e-05	5524.41	21.1556	1	42	0.0128645	2.76196e-06	0	-4.41714e-05	0.134521	0.0580141	1.52211	3.62602e-06	8.43605e-06	4.71216e-06	8.53488e-06	8.27526e-06	5.76572e-06	0.792048	0.0333219	1.44209	2.01921e-08	8.07942e-09	1.79606e-10	2.32165e-09	1.58054e-10	2.39554e-10	0.000214286	1.32861e-05	0.000214697	3.54789	21155.6	341211	341866	-86.4521	0.0000000E+000	0.0000000E+000	0.0000000E+000	86.4521	0.0000000E+000	0.0000000E+000	0.0000000E+000	-86.4521	0.0000000E+000	0.0000000E+000	0.0000000E+000	-3.54789	0.0000000E+000	0.0000000E+000	0.0000000E+000	3.54789	16.1286	86.4521	-2.35448e-06

File: 240223-OCV-EIS-Fe2Fe3_5mM-HCl1M-625RPM-Ag_AgCl_BLF8-GC-RDE-1minRestVSEoc-3ppf-14p1mVAmplitude_07_OCV_C15.mpt
EC-Lab ASCII FILE
Nb header lines : 47

Open Circuit Voltage

Run on channel : 15 (SN 19485)
User :
Electrode connection : standard
Potential control : Ewe
Ewe ctrl range : min = -1.00 V, max = 1.00 V
Ewe,I filtering : 50 kHz
Safety Limits :
	Do not start on E overload
Channel : Floating
Acquisition started on : 02/23/2024 15:19:09.853
Loaded Setting File :  NONE
Saved on :
	File : 240223-OCV-EIS-Fe2Fe3_5mM-HCl1M-625RPM-Ag_AgCl_BLF8-GC-RDE-1minRestVSEoc-3ppf-14p1mVAmplitude_07_OCV_C15.mpr
	Directory : C:\Data\mathias\RDE-RPM-variation\
	Host : 192.168.0.1
Device : VMP-300 (SN 0826)
Address : USB
EC-Lab for windows v11.52 (software)
Internet server v11.52 (firmware)
Command interpretor v11.52 (firmware)
Electrode material :
Initial state :
Electrolyte :
Comments :
Cable : special
Reference electrode : SCE Saturated Calomel Electrode (0.241 V)
Electrode surface area : 0.001 cm²
Characteristic mass : 0.001 g
Equivalent Weight : 0.000 g/eq.
Density : 0.000 g/cm3
Volume (V) : 0.001 cm³
Record EIS quality indicators
Cycle Definition : Charge/Discharge alternance
tR (h:m:s)          0:01:0.0000
dER/dt (mV/h)       1.0
record              <Ewe>
dER (mV)            0.00
dtR (s)             0.5000
E range min (V)     -1.000
E range max (V)     1.000

mode	error	time/s	<Ewe/V>
3	0	1444.63	0.45822
3	0	1445.13	0.45935
3	0	1445.63	0.459591
3	0	1446.13	0.459671
3	0	1446.63	0.459704
3	0	1447.13	0.459719
3	0	1447.63	0.459725
3	0	1448.13	0.459734
3	0	1448.63	0.459736
3	0	1449.13	0.459734
3	0	1449.63	0.459735
3	0	1450.13	0.459737
3	0	1450.63	0.459737
3	0	1451.13	0.459734
3	0	1451.63	0.459734
3	0	1452.13	0.459732
3	0	1452.63	0.459732
3	0	1453.13	0.459733
3	0	1453.63	0.45973
3	0	1454.13	0.459731
3	0	1454.63	0.459731
3	0	1455.13	0.459728
3	0	1455.63	0.459729
3	0	1456.13	0.459728
3	0	1456.63	0.459728
3	0	1457.13	0.459728
3	0	1457.63	0.45973
3	0	1458.13	0.459731
3	0	1458.63	0.459728
3	0	1459.13	0.459727
3	0	1459.63	0.459729
3	0	1460.13	0.459727
3	0	1460.63	0.459724
3	0	1461.13	0.459725
3	0	1461.63	0.459725
3	0	1462.13	0.459727
3	0	1462.63	0.459726
3	0	1463.13	0.459729
3	0	1463.63	0.459731
3	0	1464.13	0.459728
3	0	1464.63	0.459726
3	0	1465.13	0.459729
3	0	1465.63	0.459729
3	0	1466.13	0.459725
3	0	1466.63	0.459724
3	0	1467.13	0.459727
3	0	1467.63	0.459726
3	0	1468.13	0.459725
3	0	1468.63	0.459724
3	0	1469.13	0.459723
3	0	1469.63	0.459719
3	0	1470.13	0.459719
3	0	1470.63	0.45972
3	0	1471.13	0.45972
3	0	1471.63	0.45972
3	0	1472.13	0.459717
3	0	1472.63	0.459715
3	0	1473.13	0.459711
3	0	1473.63	0.459717
3	0	1474.13	0.45972
3	0	1474.63	0.459716
3	0	1475.13	0.459716
3	0	1475.63	0.45971
3	0	1476.13	0.459713
3	0	1476.63	0.459713
3	0	1477.13	0.459713
3	0	1477.63	0.459715
3	0	1478.13	0.459711
3	0	1478.63	0.45971
3	0	1479.13	0.45971
3	0	1479.63	0.459706
3	0	1480.13	0.459709
3	0	1480.63	0.459707
3	0	1481.13	0.459707
3	0	1481.63	0.459704
3	0	1482.13	0.459702
3	0	1482.63	0.459703
3	0	1483.13	0.459702
3	0	1483.63	0.459704
3	0	1484.13	0.459703
3	0	1484.63	0.459702
3	0	1485.13	0.459703
3	0	1485.63	0.459701
3	0	1486.13	0.459701
3	0	1486.63	0.4597
3	0	1487.13	0.459701
3	0	1487.63	0.459701
3	0	1488.13	0.4597
3	0	1488.63	0.459701
3	0	1489.13	0.459699
3	0	1489.63	0.459696
3	0	1490.13	0.459695
3	0	1490.63	0.459696
3	0	1491.13	0.459696
3	0	1491.63	0.459697
3	0	1492.13	0.459699
3	0	1492.63	0.459701
3	0	1493.13	0.459701
3	0	1493.63	0.4597
3	0	1494.13	0.459699
3	0	1494.63	0.459702
3	0	1495.13	0.459702
3	0	1495.63	0.459698
3	0	1496.13	0.459696
3	0	1496.63	0.459697
3	0	1497.13	0.459696
3	0	1497.63	0.459695
3	0	1498.13	0.459696
3	0	1498.63	0.459699
3	0	1499.13	0.4597
3	0	1499.63	0.459695
3	0	1500.13	0.459695
3	0	1500.63	0.459698
3	0	1501.13	0.459694
3	0	1501.63	0.459693
3	0	1502.13	0.459691
3	0	1502.63	0.459692
3	0	1503.13	0.459695
3	0	1503.63	0.459696
3	0	1504.13	0.459694
3	0	1504.29	0.459697

File: 240223-OCV-EIS-Fe2Fe3_5mM-HCl1M-1225RPM-Ag_AgCl_BLF8-GC-RDE-1minRestVSEoc-3ppf-14p1mVAmplitude_01_OCV_C15.mpt
EC-Lab ASCII FILE
Nb header lines : 47

Open Circuit Voltage

Run on channel : 15 (SN 19485)
User :
Electrode connection : standard
Potential control : Ewe
Ewe ctrl range : min = -1.00 V, max = 1.00 V
Ewe,I filtering : 50 kHz
Safety Limits :
	Do not start on E overload
Channel : Floating
Acquisition started on : 02/23/2024 14:49:54.683
Loaded Setting File :  NONE
Saved on :
	File : 240223-OCV-EIS-Fe2Fe3_5mM-HCl1M-1225RPM-Ag_AgCl_BLF8-GC-RDE-1minRestVSEoc-3ppf-14p1mVAmplitude_01_OCV_C15.mpr
	Directory : C:\Data\mathias\RDE-RPM-variation\
	Host : 192.168.0.1
Device : VMP-300 (SN 0826)
Address : USB
EC-Lab for windows v11.52 (software)
Internet server v11.52 (firmware)
Command interpretor v11.52 (firmware)
Electrode material :
Initial state :
Electrolyte :
Comments :
Cable : special
Reference electrode : SCE Saturated Calomel Electrode (0.241 V)
Electrode surface area : 0.001 cm²
Characteristic mass : 0.001 g
Equivalent Weight : 0.000 g/eq.
Density : 0.000 g/cm3
Volume (V) : 0.001 cm³
Record EIS quality indicators
Cycle Definition : Charge/Discharge alternance
tR (h:m:s)          0:01:0.0000
dER/dt (mV/h)       1.0
record              <Ewe>
dER (mV)            0.00
dtR (s)             0.5000
E range min (V)     -1.000
E range max (V)     1.000

mode	error	time/s	<Ewe/V>
3	0	0.5	0.459801
3	0	1	0.459801
3	0	1.5	0.459802
3	0	2	0.459803
3	0	2.5	0.459803
3	0	3	0.459803
3	0	3.5	0.459801
3	0	4	0.459801
3	0	4.5	0.459801
3	0	5	0.459799
3	0	5.5	0.459799
3	0	6	0.459799
3	0	6.5	0.4598
3	0	7	0.4598
3	0	7.5	0.459796
3	0	8	0.459799
3	0	8.5	0.459802
3	0	9	0.459799
3	0	9.5	0.459802
3	0	10	0.459802
3	0	10.5	0.459801
3	0	11	0.459804
3	0	11.5	0.459803
3	0	12	0.459803
3	0	12.5	0.459805
3	0	13	0.459805
3	0	13.5	0.459804
3	0	14	0.459806
3	0	14.5	0.459806
3	0	15	0.459806
3	0	15.5	0.459808
3	0	16	0.459804
3	0	16.5	0.459806
3	0	17	0.459807
3	0	17.5	0.459806
3	0	18	0.459807
3	0	18.5	0.459802
3	0	19	0.459801
3	0	19.5	0.459802
3	0	20	0.459803
3	0	20.5	0.459805
3	0	21	0.459808
3	0	21.5	0.459806
3	0	22	0.459809
3	0	22.5	0.459809
3	0	23	0.459812
3	0	23.5	0.459812
3	0	24	0.459809
3	0	24.5	0.459804
3	0	25	0.459804
3	0	25.5	0.459804
3	0	26	0.459802
3	0	26.5	0.459802
3	0	27	0.459804
3	0	27.5	0.459804
3	0	28	0.459802
3	0	28.5	0.4598
3	0	29	0.459802
3	0	29.5	0.459805
3	0	30	0.459805
3	0	30.5	0.459802
3	0	31	0.459801
3	0	31.5	0.4598
3	0	32	0.459798
3	0	32.5	0.459801
3	0	33	0.459798
3	0	33.5	0.459797
3	0	34	0.459794
3	0	34.5	0.459796
3	0	35	0.459797
3	0	35.5	0.459795
3	0	36	0.459798
3	0	36.5	0.459795
3	0	37	0.459794
3	0	37.5	0.459793
3	0	38	0.459803
3	0	38.5	0.459804
3	0	39	0.459803
3	0	39.5	0.459802
3	0	40	0.459802
3	0	40.5	0.459801
3	0	41	0.459803
3	0	41.5	0.459803
3	0	42	0.459801
3	0	42.5	0.459802
3	0	43	0.459801
3	0	43.5	0.459802
3	0	44	0.459801
3	0	44.5	0.459801
3	0	45	0.459802
3	0	45.5	0.459799
3	0	46	0.459797
3	0	46.5	0.459797
3	0	47	0.4598
3	0	47.5	0.4598
3	0	48	0.459801
3	0	48.5	0.459803
3	0	49	0.459801
3	0	49.5	0.459801
3	0	50	0.459799
3	0	50.5	0.459802
3	0	51	0.459801
3	0	51.5	0.459801
3	0	52	0.459804
3	0	52.5	0.459804
3	0	53	0.459805
3	0	53.5	0.459808
3	0	54	0.459809
3	0	54.5	0.459809
3	0	55	0.459811
3	0	55.5	0.459811
3	0	56	0.459809
3	0	56.5	0.459804
3	0	56.5764	0.459805