Folder: Thesis/Python/Data/RDE (part 22)

File: 240223-OCV-EIS-Fe2Fe3_5mM-HCl1M-2000RPM-Ag_AgCl_BLF8-GC-RDE-AllPreviousVariations_07_OCV_C15.mpt
EC-Lab ASCII FILE
Nb header lines : 47

Open Circuit Voltage

Run on channel : 15 (SN 19485)
User :
Electrode connection : standard
Potential control : Ewe
Ewe ctrl range : min = -1.00 V, max = 1.00 V
Ewe,I filtering : 50 kHz
Safety Limits :
	Do not start on E overload
Channel : Floating
Acquisition started on : 02/23/2024 12:36:41.987
Loaded Setting File :  C:\Data\mathias\RDE-RPM-variation\240222-CV-EIS-Fe2Fe3_5mM-HCl1M-0RPM-Ag_AgCl_BLF8-GC-RDE-DefaultSettings.mps
Saved on :
	File : 240223-OCV-EIS-Fe2Fe3_5mM-HCl1M-2000RPM-Ag_AgCl_BLF8-GC-RDE-AllPreviousVariations_07_OCV_C15.mpr
	Directory : C:\Data\mathias\RDE-RPM-variation\
	Host : 192.168.0.1
Device : VMP-300 (SN 0826)
Address : USB
EC-Lab for windows v11.52 (software)
Internet server v11.52 (firmware)
Command interpretor v11.52 (firmware)
Electrode material :
Initial state :
Electrolyte :
Comments :
Cable : special
Reference electrode : SCE Saturated Calomel Electrode (0.241 V)
Electrode surface area : 0.001 cm²
Characteristic mass : 0.001 g
Equivalent Weight : 0.000 g/eq.
Density : 0.000 g/cm3
Volume (V) : 0.001 cm³
Record EIS quality indicators
Cycle Definition : Charge/Discharge alternance
tR (h:m:s)          0:01:0.0000
dER/dt (mV/h)       1.0
record              <Ewe>
dER (mV)            0.00
dtR (s)             0.5000
E range min (V)     -1.000
E range max (V)     1.000

mode	error	time/s	<Ewe/V>
3	0	2723.3	0.410439
3	0	2723.8	0.444962
3	0	2724.3	0.451724
3	0	2724.8	0.454306
3	0	2725.3	0.455685
3	0	2725.8	0.456534
3	0	2726.3	0.457109
3	0	2726.8	0.457518
3	0	2727.3	0.457821
3	0	2727.8	0.458052
3	0	2728.3	0.458234
3	0	2728.8	0.458384
3	0	2729.3	0.458511
3	0	2729.8	0.458618
3	0	2730.3	0.458709
3	0	2730.8	0.458787
3	0	2731.3	0.458855
3	0	2731.8	0.458913
3	0	2732.3	0.458962
3	0	2732.8	0.459009
3	0	2733.3	0.459052
3	0	2733.8	0.459087
3	0	2734.3	0.459124
3	0	2734.8	0.459151
3	0	2735.3	0.459179
3	0	2735.8	0.459205
3	0	2736.3	0.459226
3	0	2736.8	0.459246
3	0	2737.3	0.459267
3	0	2737.8	0.459286
3	0	2738.3	0.459304
3	0	2738.8	0.45932
3	0	2739.3	0.459336
3	0	2739.8	0.459348
3	0	2740.3	0.459361
3	0	2740.8	0.459375
3	0	2741.3	0.459383
3	0	2741.8	0.459394
3	0	2742.3	0.459409
3	0	2742.8	0.459419
3	0	2743.3	0.459428
3	0	2743.8	0.459435
3	0	2744.3	0.459442
3	0	2744.8	0.45945
3	0	2745.3	0.459458
3	0	2745.8	0.459468
3	0	2746.3	0.459477
3	0	2746.8	0.459486
3	0	2747.3	0.459494
3	0	2747.8	0.459497
3	0	2748.3	0.459501
3	0	2748.8	0.459508
3	0	2749.3	0.459514
3	0	2749.8	0.45952
3	0	2750.3	0.459524
3	0	2750.8	0.459527
3	0	2751.3	0.459536
3	0	2751.8	0.459541
3	0	2752.3	0.459546
3	0	2752.8	0.459549
3	0	2753.3	0.459557
3	0	2753.8	0.459559
3	0	2754.3	0.459566
3	0	2754.8	0.459568
3	0	2755.3	0.459575
3	0	2755.8	0.459578
3	0	2756.3	0.45958
3	0	2756.8	0.459584
3	0	2757.3	0.459588
3	0	2757.8	0.45959
3	0	2758.3	0.459595
3	0	2758.8	0.459597
3	0	2759.3	0.459598
3	0	2759.8	0.459602
3	0	2760.3	0.459607
3	0	2760.8	0.459608
3	0	2761.3	0.459609
3	0	2761.8	0.459612
3	0	2762.3	0.459611
3	0	2762.8	0.459615
3	0	2763.3	0.459619
3	0	2763.8	0.45962
3	0	2764.3	0.459624
3	0	2764.8	0.459625
3	0	2765.3	0.459632
3	0	2765.8	0.459631
3	0	2766.3	0.459631
3	0	2766.8	0.459629
3	0	2767.3	0.459632
3	0	2767.8	0.459633
3	0	2768.3	0.459634
3	0	2768.8	0.459638
3	0	2769.3	0.459638
3	0	2769.8	0.459638
3	0	2770.3	0.459639
3	0	2770.8	0.45964
3	0	2771.3	0.459641
3	0	2771.8	0.459646
3	0	2772.3	0.459648
3	0	2772.8	0.459647
3	0	2773.3	0.45965
3	0	2773.8	0.45965
3	0	2774.3	0.459651
3	0	2774.8	0.459651
3	0	2775.3	0.459654
3	0	2775.8	0.459655
3	0	2776.3	0.459662
3	0	2776.8	0.459663
3	0	2777.3	0.459667
3	0	2777.8	0.459669
3	0	2778.3	0.45967
3	0	2778.8	0.459672
3	0	2779.3	0.459673
3	0	2779.8	0.459675
3	0	2780.3	0.459676
3	0	2780.8	0.459675
3	0	2781.3	0.459677
3	0	2781.8	0.459679
3	0	2782.3	0.459679
3	0	2782.8	0.459681
3	0	2782.96	0.459681

File: 240223-OCV-EIS-Fe2Fe3_5mM-HCl1M-2000RPM-Ag_AgCl_BLF8-GC-RDE-AllPreviousVariations_08_PEIS_C15.mpt
EC-Lab ASCII FILE
Nb header lines : 67

Potentio Electrochemical Impedance Spectroscopy

Run on channel : 15 (SN 19485)
User :
Electrode connection : standard
Potential control : Ewe
Ewe ctrl range : min = -1.00 V, max = 1.00 V
Ewe,I filtering : 50 kHz
Safety Limits :
	Do not start on E overload
Channel : Floating
Acquisition started on : 02/23/2024 12:36:41.987
Loaded Setting File :  C:\Data\mathias\RDE-RPM-variation\240222-CV-EIS-Fe2Fe3_5mM-HCl1M-0RPM-Ag_AgCl_BLF8-GC-RDE-DefaultSettings.mps
Saved on :
	File : 240223-OCV-EIS-Fe2Fe3_5mM-HCl1M-2000RPM-Ag_AgCl_BLF8-GC-RDE-AllPreviousVariations_08_PEIS_C15.mpr
	Directory : C:\Data\mathias\RDE-RPM-variation\
	Host : 192.168.0.1
Device : VMP-300 (SN 0826)
Address : USB
EC-Lab for windows v11.52 (software)
Internet server v11.52 (firmware)
Command interpretor v11.52 (firmware)
Electrode material :
Initial state :
Electrolyte :
Comments :
Cable : special
Reference electrode : SCE Saturated Calomel Electrode (0.241 V)
Electrode surface area : 0.001 cm²
Characteristic mass : 0.001 g
Equivalent Weight : 0.000 g/eq.
Density : 0.000 g/cm3
Volume (V) : 0.001 cm³
Record EIS quality indicators
Cycle Definition : Charge/Discharge alternance
Mode                Single sine
E (V)               0.0000
vs.                 Ref
tE (h:m:s)          0:05:0.0000
record              0
dI                  0.000
unit dI             mA
dt (s)              0.000
fi                  1.000
unit fi             MHz
ff                  100.000
unit ff             mHz
Nd                  10
Points              per decade
spacing             Logarithmic
Va (mV)             14.1
pw                  0.10
Na                  5
corr                0
E range min (V)     -1.000
E range max (V)     1.000
I Range             Auto
Bandwidth           8
nc cycles           2
goto Ns'            0
nr cycles           0
inc. cycle          1

freq/Hz	Re(Z)/Ohm	-Im(Z)/Ohm	|Z|/Ohm	Phase(Z)/deg	time/s	<Ewe>/V	<I>/mA	Cs/µF	Cp/µF	cycle number	I Range	|Ewe|/V	|I|/A	Ns	(Q-Qo)/mA.h	THD Ewe/%	NSD Ewe/%	NSR Ewe/%	|Ewe h2|/V	|Ewe h3|/V	|Ewe h4|/V	|Ewe h5|/V	|Ewe h6|/V	|Ewe h7|/V	THD I/%	NSD I/%	NSR I/%	|I h2|/A	|I h3|/A	|I h4|/A	|I h5|/A	|I h6|/A	|I h7|/A	Re(Y)/Ohm-1	Im(Y)/Ohm-1	|Y|/Ohm-1	Phase(Y)/deg	Re(C)/nF	Im(C)/nF	|C|/nF	Phase(C)/deg	Re(M)	Im(M)	|M|	Phase(M)/deg	Re(Permittivity)	Im(Permittivity)	|Permittivity|	Phase(Permittivity)/deg	Re(Resistivity)/Ohm.cm	Im(Resistivity)/Ohm.cm	|Resistivity|/Ohm.cm	Phase(Resistivity)/deg	Re(Conductivity)/mS/cm	Im(Conductivity)/mS/cm	|Conductivity|/mS/cm	Phase(Conductivity)/deg	Tan(Delta)	Loss Angle(Delta)/deg	dq/mA.h
1.00002e+06	3.54443	4.09868	5.41868	-49.1476	3085.37	-0.00015875	-0.511103	0.0388301	0.0222161	1	38	0.0111433	0.00205645	0	-0.0427995	-1	-1	-1	0	0	0	0	0	0	-1	-1	-1	0	0	0	0	0	0	0.120714	0.139591	0.184547	49.1476	22.2161	19.2119	29.371	-40.8524	0.0000000E+000	0.0000000E+000	0.0000000E+000	40.8524	0.0000000E+000	0.0000000E+000	0.0000000E+000	-40.8524	0.0000000E+000	0.0000000E+000	0.0000000E+000	-49.1476	0.0000000E+000	0.0000000E+000	0.0000000E+000	49.1476	0.864774	40.8524	-0.0427995
39814.1	3.57336	1.56762	3.90209	-23.6868	3110.62	-0.000179814	-0.511818	2.55002	0.411555	1	38	0.0146144	0.00374527	0	-0.046393	0.451994	0.235065	9.15951	3.81532e-05	1.48534e-05	2.55434e-05	2.87256e-05	1.83044e-05	2.29325e-05	0.0534939	0.0530873	0.779999	7.63478e-07	9.61742e-07	5.36229e-07	9.39036e-07	5.1561e-07	6.27678e-07	0.234683	0.102954	0.256273	23.6868	411.555	938.135	1024.44	-66.3132	0.0000000E+000	0.0000000E+000	0.0000000E+000	66.3132	0.0000000E+000	0.0000000E+000	0.0000000E+000	-66.3132	0.0000000E+000	0.0000000E+000	0.0000000E+000	-23.6868	0.0000000E+000	0.0000000E+000	0.0000000E+000	23.6868	2.27949	66.3132	-0.000257144
1584.49	10.6595	22.8159	25.1831	-64.9581	3136.28	-0.000268768	-0.510405	4.40244	3.61367	1	38	0.0140237	0.000556869	0	-0.0500017	0.463647	0.292723	9.46198	2.13335e-05	2.37913e-05	2.35456e-05	2.5081e-05	3.10905e-05	1.92658e-05	0.937643	0.152672	5.27546	4.45254e-06	1.56251e-06	5.59895e-07	1.7749e-06	6.22372e-07	5.04276e-07	0.0168081	0.0359764	0.0397092	64.9581	3613.67	1688.3	3988.6	-25.0419	0.0000000E+000	0.0000000E+000	0.0000000E+000	25.0419	0.0000000E+000	0.0000000E+000	0.0000000E+000	-25.0419	0.0000000E+000	0.0000000E+000	0.0000000E+000	-64.9581	0.0000000E+000	0.0000000E+000	0.0000000E+000	64.9581	0.467198	25.0419	-0.000289853
63.0823	135.78	188.754	232.518	-54.2708	3162.03	-0.0002601	-0.50804	13.3664	8.80843	1	39	0.0136365	5.86474e-05	0	-0.0536071	0.572073	0.238025	9.3841	3.0393e-05	2.27721e-05	2.42365e-05	3.77348e-05	2.63563e-05	3.29746e-05	1.97486	0.537764	22.1962	8.72218e-07	2.20873e-07	2.08266e-07	3.34431e-07	3.29777e-07	3.8127e-07	0.00251145	0.00349129	0.00430075	54.2708	8808.43	6336.31	10850.7	-35.7292	0.0000000E+000	0.0000000E+000	0.0000000E+000	35.7292	0.0000000E+000	0.0000000E+000	0.0000000E+000	-35.7292	0.0000000E+000	0.0000000E+000	0.0000000E+000	-54.2708	0.0000000E+000	0.0000000E+000	0.0000000E+000	54.2708	0.719346	35.7292	-0.000250921
2.51085	1114.89	942.255	1459.74	-40.2029	3194.83	-0.00026799	-0.507648	67.2716	28.0298	1	39	0.0136323	9.33888e-06	0	-0.0582037	0.20042	0.118386	3.51683	1.13849e-05	1.18253e-05	1.19025e-05	1.36476e-05	6.57769e-06	8.55226e-06	5.44359	10.3628	54.0245	3.23759e-07	2.44647e-07	1.44811e-07	1.34014e-07	1.30002e-07	9.78316e-08	0.00052322	0.000442201	0.000685055	40.2029	28029.8	33165.3	43423.6	-49.7971	0.0000000E+000	0.0000000E+000	0.0000000E+000	49.7971	0.0000000E+000	0.0000000E+000	0.0000000E+000	-49.7971	0.0000000E+000	0.0000000E+000	0.0000000E+000	-40.2029	0.0000000E+000	0.0000000E+000	0.0000000E+000	40.2029	1.18322	49.7971	-0.000651686
0.0999518	2393.48	177.168	2400.02	-4.2334	3674.49	-0.000238036	-0.505328	8987.59	48.9762	1	39	0.0136275	5.67808e-06	0	-0.125606	0.117416	0.0321948	0.752229	2.02286e-06	1.06983e-05	2.44958e-06	1.08936e-05	1.22074e-06	1.89778e-06	8.90681	4.68922	28.2013	2.48778e-07	1.6146e-07	1.74746e-07	1.82703e-07	1.87627e-07	1.84551e-07	0.000415526	3.07578e-05	0.000416663	4.2334	48976.2	661649	663459	-85.7666	0.0000000E+000	0.0000000E+000	0.0000000E+000	85.7666	0.0000000E+000	0.0000000E+000	0.0000000E+000	-85.7666	0.0000000E+000	0.0000000E+000	0.0000000E+000	-4.2334	0.0000000E+000	0.0000000E+000	0.0000000E+000	4.2334	13.5096	85.7666	-0.014265
50122.5	3.52671	1.342	3.77341	-20.833	3700.38	-0.000140501	-0.508701	2.36612	0.299276	2	38	0.0145899	0.0038665	0	-0.129226	0.474312	0.262822	9.08048	2.45478e-05	2.3157e-05	1.70331e-05	2.82208e-05	3.26577e-05	3.22494e-05	0.0702116	0.025279	0.751559	1.26497e-06	1.5288e-06	8.88163e-07	7.57171e-07	8.18716e-07	7.82192e-07	0.247686	0.0942505	0.265012	20.833	299.276	786.483	841.499	-69.167	0.0000000E+000	0.0000000E+000	0.0000000E+000	69.167	0.0000000E+000	0.0000000E+000	0.0000000E+000	-69.167	0.0000000E+000	0.0000000E+000	0.0000000E+000	-20.833	0.0000000E+000	0.0000000E+000	0.0000000E+000	20.833	2.62795	69.167	-0.000254869
[...]
2512.41	7.83065	15.7008	17.5452	-63.4926	4315.54	-0.000265412	-0.504171	4.03467	3.23098	3	38	0.0131985	0.000752255	0	-0.21525	0.59423	0.228133	10.1405	3.042e-05	2.18746e-05	2.86163e-05	2.96889e-05	2.67114e-05	3.67496e-05	0.897189	0.146972	3.8875	5.87037e-06	2.31218e-06	5.67617e-07	1.80521e-06	9.39252e-07	5.61231e-07	0.0254379	0.051004	0.0569956	63.4926	3230.98	1611.43	3610.53	-26.5074	0.0000000E+000	0.0000000E+000	0.0000000E+000	26.5074	0.0000000E+000	0.0000000E+000	0.0000000E+000	-26.5074	0.0000000E+000	0.0000000E+000	0.0000000E+000	-63.4926	0.0000000E+000	0.0000000E+000	0.0000000E+000	63.4926	0.498742	26.5074	-0.000255787
99.9682	100.21	140.287	172.402	-54.461	4341.61	-0.000235699	-0.503385	11.3486	7.51433	3	39	0.0136594	7.92299e-05	0	-0.218872	0.432049	0.250844	9.43292	3.1754e-05	1.47301e-05	1.93972e-05	1.86014e-05	2.15728e-05	2.08697e-05	1.36538	0.503278	16.8523	8.92751e-07	2.31686e-07	2.45107e-07	2.7295e-07	1.77647e-07	3.10576e-07	0.00337152	0.00471989	0.00580039	54.461	7514.33	5367.65	9234.54	-35.539	0.0000000E+000	0.0000000E+000	0.0000000E+000	35.539	0.0000000E+000	0.0000000E+000	0.0000000E+000	-35.539	0.0000000E+000	0.0000000E+000	0.0000000E+000	-54.461	0.0000000E+000	0.0000000E+000	0.0000000E+000	54.461	0.714322	35.539	-0.000245395
3.9819	750.236	705.477	1029.83	-43.2389	4369.52	-0.000259354	-0.502556	56.6561	26.5877	3	39	0.0136325	1.32377e-05	0	-0.222748	0.290823	0.140129	4.56341	9.47104e-06	1.55047e-05	1.67576e-05	2.05888e-05	1.77987e-05	8.52471e-06	4.91943	9.87047	49.4708	5.29146e-07	1.79862e-07	1.81659e-07	7.92921e-08	1.70793e-07	8.23664e-08	0.000707401	0.000665198	0.000971033	43.2389	26587.7	28274.5	38811.8	-46.7611	0.0000000E+000	0.0000000E+000	0.0000000E+000	46.7611	0.0000000E+000	0.0000000E+000	0.0000000E+000	-46.7611	0.0000000E+000	0.0000000E+000	0.0000000E+000	-43.2389	0.0000000E+000	0.0000000E+000	0.0000000E+000	43.2389	1.06344	46.7611	-0.000441841
0.158419	2153.89	188.171	2162.09	-4.99288	4675.16	-0.000266923	-0.502488	5339.01	40.4406	3	39	0.0136269	6.30264e-06	0	-0.265392	0.119546	0.0346397	0.839901	3.0944e-06	1.09793e-05	2.2783e-06	1.01565e-05	2.4619e-06	2.81232e-06	9.92681	5.6731	27.431	3.15427e-07	2.94492e-07	2.22267e-07	1.22345e-07	1.99577e-07	2.28207e-07	0.00046076	4.02536e-05	0.000462515	4.99288	40440.6	462901	464664	-85.0071	0.0000000E+000	0.0000000E+000	0.0000000E+000	85.0071	0.0000000E+000	0.0000000E+000	0.0000000E+000	-85.0071	0.0000000E+000	0.0000000E+000	0.0000000E+000	-4.99288	0.0000000E+000	0.0000000E+000	0.0000000E+000	4.99288	11.4464	85.0071	-0.00897223
0.0999518	2159.49	120.833	2162.86	-3.20263	4857.63	-0.000238386	-0.502102	13177.8	41.1299	3	39	0.0136272	6.30052e-06	0	-0.290834	0.120734	0.0590389	0.734094	1.97281e-06	1.05794e-05	3.66169e-06	1.12781e-05	2.27369e-06	1.39418e-06	7.55636	4.47844	26.6903	2.14358e-07	1.98151e-07	2.35922e-07	9.54058e-08	1.59038e-07	1.36018e-07	0.000461628	2.58302e-05	0.00046235	3.20263	41129.9	735058	736207	-86.7974	0.0000000E+000	0.0000000E+000	0.0000000E+000	86.7974	0.0000000E+000	0.0000000E+000	0.0000000E+000	-86.7974	0.0000000E+000	0.0000000E+000	0.0000000E+000	-3.20263	0.0000000E+000	0.0000000E+000	0.0000000E+000	3.20263	17.8716	86.7974	-0.0141732

File: 240223-OCV-EIS-Fe2Fe3_5mM-HCl1M-2000RPM-Ag_AgCl_BLF8-GC-RDE-AllPreviousVariations_09_OCV_C15.mpt
EC-Lab ASCII FILE
Nb header lines : 47

Open Circuit Voltage

Run on channel : 15 (SN 19485)
User :
Electrode connection : standard
Potential control : Ewe
Ewe ctrl range : min = -1.00 V, max = 1.00 V
Ewe,I filtering : 50 kHz
Safety Limits :
	Do not start on E overload
Channel : Floating
Acquisition started on : 02/23/2024 12:36:41.987
Loaded Setting File :  C:\Data\mathias\RDE-RPM-variation\240222-CV-EIS-Fe2Fe3_5mM-HCl1M-0RPM-Ag_AgCl_BLF8-GC-RDE-DefaultSettings.mps
Saved on :
	File : 240223-OCV-EIS-Fe2Fe3_5mM-HCl1M-2000RPM-Ag_AgCl_BLF8-GC-RDE-AllPreviousVariations_09_OCV_C15.mpr
	Directory : C:\Data\mathias\RDE-RPM-variation\
	Host : 192.168.0.1
Device : VMP-300 (SN 0826)
Address : USB
EC-Lab for windows v11.52 (software)
Internet server v11.52 (firmware)
Command interpretor v11.52 (firmware)
Electrode material :
Initial state :
Electrolyte :
Comments :
Cable : special
Reference electrode : SCE Saturated Calomel Electrode (0.241 V)
Electrode surface area : 0.001 cm²
Characteristic mass : 0.001 g
Equivalent Weight : 0.000 g/eq.
Density : 0.000 g/cm3
Volume (V) : 0.001 cm³
Record EIS quality indicators
Cycle Definition : Charge/Discharge alternance
tR (h:m:s)          0:01:0.0000
dER/dt (mV/h)       1.0
record              <Ewe>
dER (mV)            0.00
dtR (s)             0.5000
E range min (V)     -1.000
E range max (V)     1.000

mode	error	time/s	<Ewe/V>
3	0	4858.13	0.403783
3	0	4858.63	0.44196
3	0	4859.13	0.450076
3	0	4859.63	0.453189
3	0	4860.13	0.454844
3	0	4860.63	0.45586
3	0	4861.13	0.456541
3	0	4861.63	0.45703
3	0	4862.13	0.457393
3	0	4862.63	0.45767
3	0	4863.13	0.457892
3	0	4863.63	0.458067
3	0	4864.13	0.458213
3	0	4864.63	0.458337
3	0	4865.13	0.458442
3	0	4865.63	0.458536
3	0	4866.13	0.458616
3	0	4866.63	0.458685
3	0	4867.13	0.458746
3	0	4867.63	0.458801
3	0	4868.13	0.458854
3	0	4868.63	0.458898
3	0	4869.13	0.458936
3	0	4869.63	0.458975
3	0	4870.13	0.459011
3	0	4870.63	0.459043
3	0	4871.13	0.45907
3	0	4871.63	0.459095
3	0	4872.13	0.459122
3	0	4872.63	0.459144
3	0	4873.13	0.459166
3	0	4873.63	0.459186
3	0	4874.13	0.459204
3	0	4874.63	0.459221
3	0	4875.13	0.459236
3	0	4875.63	0.459251
3	0	4876.13	0.459266
3	0	4876.63	0.459281
3	0	4877.13	0.459293
3	0	4877.63	0.459305
3	0	4878.13	0.459318
3	0	4878.63	0.459329
3	0	4879.13	0.459339
3	0	4879.63	0.45935
3	0	4880.13	0.459358
3	0	4880.63	0.459366
3	0	4881.13	0.459377
3	0	4881.63	0.459384
3	0	4882.13	0.459394
3	0	4882.63	0.459399
3	0	4883.13	0.459406
3	0	4883.63	0.459411
3	0	4884.13	0.459418
3	0	4884.63	0.459426
3	0	4885.13	0.459434
3	0	4885.63	0.459438
3	0	4886.13	0.459442
3	0	4886.63	0.459449
3	0	4887.13	0.459455
3	0	4887.63	0.459459
3	0	4888.13	0.459465
3	0	4888.63	0.459469
3	0	4889.13	0.459475
3	0	4889.63	0.459478
3	0	4890.13	0.459483
3	0	4890.63	0.459492
3	0	4891.13	0.459495
3	0	4891.63	0.459501
3	0	4892.13	0.459505
3	0	4892.63	0.459507
3	0	4893.13	0.459511
3	0	4893.63	0.459516
3	0	4894.13	0.459521
3	0	4894.63	0.459524
3	0	4895.13	0.459529
3	0	4895.63	0.45953
3	0	4896.13	0.459534
3	0	4896.63	0.459536
3	0	4897.13	0.459539
3	0	4897.63	0.459539
3	0	4898.13	0.459543
3	0	4898.63	0.459548
3	0	4899.13	0.459551
3	0	4899.63	0.459554
3	0	4900.13	0.459555
3	0	4900.63	0.459557
3	0	4901.13	0.459559
3	0	4901.63	0.45956
3	0	4902.13	0.459567
3	0	4902.63	0.459571
3	0	4903.13	0.459574
3	0	4903.63	0.459576
3	0	4904.13	0.459572
3	0	4904.63	0.459574
3	0	4905.13	0.459577
3	0	4905.63	0.459581
3	0	4906.13	0.459584
3	0	4906.63	0.459587
3	0	4907.13	0.459587
3	0	4907.63	0.459594
3	0	4908.13	0.459597
3	0	4908.63	0.459595
3	0	4909.13	0.459597
3	0	4909.63	0.459595
3	0	4910.13	0.459599
3	0	4910.63	0.459599
3	0	4911.13	0.459601
3	0	4911.63	0.4596
3	0	4912.13	0.459603
3	0	4912.63	0.459604
3	0	4913.13	0.459605
3	0	4913.63	0.459607
3	0	4914.13	0.459611
3	0	4914.63	0.45961
3	0	4915.13	0.459611
3	0	4915.63	0.459615
3	0	4916.13	0.459619
3	0	4916.63	0.459619
3	0	4917.13	0.459619
3	0	4917.63	0.459619
3	0	4917.79	0.459621