Folder: Thesis/Python/Data/RDE

File: 240219-CV-EIS-Fe2Fe3_5mM-HCl1M-0RPM-Ag_AgCl_BLF8-GC-RDE_01_CV_C15.mpt
EC-Lab ASCII FILE
Nb header lines : 60

Cyclic Voltammetry

Run on channel : 15 (SN 19485)
User :
Electrode connection : standard
Potential control : Ewe
Ewe ctrl range : min = -1.00 V, max = 1.00 V
Ewe,I filtering : <None>
Safety Limits :
	Do not start on E overload
Channel : Floating
Acquisition started on : 02/19/2024 14:54:22.739
Loaded Setting File :  NONE
Saved on :
	File : 240219-CV-EIS-Fe2Fe3_5mM-HCl1M-0RPM-Ag_AgCl_BLF8-GC-RDE_01_CV_C15.mpr
	Directory : C:\Data\mathias\RDE-RPM-variation\
	Host : 192.168.0.1
Device : VMP-300 (SN 0826)
Address : USB
EC-Lab for windows v11.52 (software)
Internet server v11.52 (firmware)
Command interpretor v11.52 (firmware)
Electrode material :
Initial state :
Electrolyte :
Comments :
Cable : special
Electrode surface area : 0.001 cm²
Characteristic mass : 0.001 g
Equivalent Weight : 0.000 g/eq.
Density : 0.000 g/cm3
Volume (V) : 0.001 cm³
Record EIS quality indicators
Cycle Definition : Charge/Discharge alternance
Ei (V)              0.000
vs.                 Eoc
dE/dt               20.000
dE/dt unit          mV/s
E1 (V)              1.000
vs.                 Ref
Step percent        50
N                   10
E range min (V)     -1.000
E range max (V)     1.000
I Range             Auto
I Range min         Unset
I Range max         Unset
I Range init        Unset
Bandwidth           8
E2 (V)              0.000
vs.                 Ref
nc cycles           2
Reverse Scan        1
Ef (V)              0.000
vs.                 Eoc

mode	ox/red	error	control changes	counter inc.	time/s	control/V	Ewe/V	<I>/mA	cycle number	(Q-Qo)/C	I Range	step time/s	P/W
2	1	0	0	0	0.000000000000000E+000	0.469087	0.468954	0.000544034	1	0.0000000E+000	43	0.000000000000000E+000	2.55127e-07
2	1	0	1	0	2.5476	0.520037	0.520228	0.0123053	1	1.62396e-05	41	2.5338	6.40155e-06
2	1	0	1	0	5.0464	0.570014	0.569963	0.0278514	1	6.55479e-05	41	5.0326	1.58743e-05
2	1	0	1	0	7.5452	0.61999	0.620115	0.0472104	1	0.000159556	41	7.5314	2.92759e-05
2	1	0	1	0	10.044	0.669966	0.670079	0.059734	1	0.000296238	41	10.0302	4.00265e-05
2	1	0	1	0	12.5428	0.71994	0.720036	0.0594351	1	0.000447528	41	12.529	4.27954e-05
2	1	0	1	0	15.0417	0.769919	0.769791	0.0535358	1	0.000589475	41	15.0279	4.12114e-05
2	1	0	1	0	17.5405	0.819895	0.819727	0.0474	1	0.000715714	41	17.5267	3.8855e-05
2	1	0	1	0	20.0393	0.869871	0.869905	0.0427116	1	0.000828293	41	20.0255	3.7155e-05
2	1	0	1	0	22.5381	0.919847	0.919747	0.0394956	1	0.000931056	41	22.5243	3.6326e-05
2	1	0	1	0	25.0369	0.969823	0.970294	0.0373543	1	0.00102718	41	25.0231	3.62446e-05
2	1	0	1	0	27.5086	0.980718	0.980692	0.0344842	1	0.00111692	41	27.4948	3.38183e-05
2	1	0	1	0	30.0074	0.930744	0.930705	0.0321724	1	0.00119958	41	29.9936	2.99431e-05
2	1	0	1	0	32.5063	0.880766	0.880882	0.030463	1	0.00127737	41	32.4925	2.68343e-05
2	1	0	1	0	35.0051	0.83079	0.830568	0.0287054	1	0.00135084	41	34.9913	2.38418e-05
2	1	0	1	0	37.5039	0.780813	0.780671	0.026505	1	0.00141943	41	37.4901	2.06917e-05
2	1	0	1	0	40.0027	0.730837	0.730862	0.0234837	1	0.00148158	41	39.9889	1.71634e-05
2	1	0	1	0	42.5015	0.680861	0.680975	0.0195419	1	0.00153515	41	42.4877	1.33075e-05
2	1	0	1	0	45.0003	0.630885	0.63087	0.0142819	1	0.00157723	41	44.9865	9.01004e-06
2	1	0	1	0	47.4991	0.580908	0.580994	0.00848733	1	0.00160524	41	47.4853	4.93109e-06
2	1	0	1	0	50.0279	0.530332	0.530425	0.00258253	1	0.00161908	42	50.0141	1.36984e-06
2	0	0	1	0	52.5867	0.479157	0.479337	-0.00447307	1	0.0016172	42	1.4793	-2.1441e-06
2	0	0	1	0	55.1155	0.428581	0.428719	-0.0156899	1	0.00159296	41	4.0081	-6.72656e-06
2	0	0	1	0	57.6143	0.378605	0.378728	-0.035079	1	0.00153144	41	6.5069	-1.32854e-05
2	0	0	1	0	60.1131	0.328628	0.328645	-0.0630256	1	0.00140971	41	9.0057	-2.0713e-05
2	0	0	1	0	62.612	0.278652	0.27899	-0.0863628	1	0.00121963	41	11.5046	-2.40943e-05
2	0	0	1	0	65.1108	0.228676	0.228667	-0.0883514	1	0.000996473	41	14.0034	-2.0203e-05
2	0	0	1	0	67.6096	0.1787	0.178983	-0.075947	1	0.000789886	41	16.5022	-1.35932e-05
2	0	0	1	0	70.1084	0.128723	0.129013	-0.0632684	1	0.000616423	41	19.001	-8.16244e-06
2	0	0	1	0	72.6072	0.0787472	0.079069	-0.0540402	1	0.000470375	41	21.4998	-4.27291e-06
2	0	0	1	0	75.106	0.028771	0.0290809	-0.0476057	1	0.000343689	41	23.9986	-1.38442e-06
2	0	0	1	1	77.5829	0.0207748	0.0210829	-0.0411008	1	0.000233144	41	26.4755	-8.66524e-07
2	0	0	1	1	80.0817	0.070751	0.0709012	-0.0364731	1	0.00013679	41	28.9743	-2.58599e-06
2	0	0	1	1	82.5805	0.120727	0.1208	-0.0326828	1	5.06822e-05	41	31.4731	-3.94809e-06
2	0	0	1	1	85.0793	0.170703	0.171036	-0.0288667	1	-2.60823e-05	41	33.9719	-4.93723e-06
2	0	0	1	1	87.5781	0.22068	0.221	-0.0243602	1	-9.26037e-05	41	36.4707	-5.38361e-06
2	0	0	1	1	90.0769	0.270656	0.271092	-0.0187578	1	-0.000146534	41	38.9695	-5.08509e-06
2	0	0	1	1	92.5758	0.320634	0.32095	-0.0124168	1	-0.000185414	41	41.4684	-3.98518e-06
2	0	0	1	1	95.0746	0.370608	0.370873	-0.00604405	1	-0.000208301	41	43.9672	-2.24157e-06
2	1	0	1	1	97.6333	0.421784	0.421991	0.000770155	1	-0.00021517	43	0.2498	3.24999e-07
2	1	0	1	1	100.13	0.47171	0.471919	0.00973395	2	-0.000202897	42	2.7462	4.59363e-06
2	1	0	1	1	102.658	0.522284	0.522739	0.0247959	2	-0.000160761	41	5.2749	1.29618e-05
2	1	0	1	1	105.157	0.572262	0.572488	0.0482319	2	-7.0983e-05	41	7.7738	2.76122e-05
2	1	0	1	1	107.656	0.622239	0.622209	0.0748257	2	8.39274e-05	41	10.2726	4.65572e-05
2	1	0	1	1	110.155	0.672215	0.672436	0.0870253	2	0.000291058	41	12.7714	5.85189e-05
2	1	0	1	1	112.654	0.722191	0.722221	0.080861	2	0.000503556	41	15.2702	5.83995e-05
2	1	0	1	1	115.152	0.772168	0.772197	0.0692452	2	0.000691471	41	17.769	5.3471e-05
2	1	0	1	1	117.651	0.822144	0.822258	0.0590201	2	0.000851428	41	20.2678	4.85297e-05
2	1	0	1	1	120.15	0.87212	0.872173	0.0515663	2	0.000989333	41	22.7666	4.49747e-05
2	1	0	1	1	122.649	0.922097	0.922169	0.0463719	2	0.0011116	41	25.2655	4.27627e-05
2	1	0	1	1	125.148	0.972072	0.972167	0.042756	2	0.00122295	41	27.7643	4.1566e-05
2	1	0	1	1	127.607	0.978719	0.978778	0.0386248	2	0.00132382	41	30.2235	3.78051e-05
2	1	0	1	1	130.106	0.928743	0.928662	0.0354603	2	0.00141569	41	32.7223	3.29306e-05
2	1	0	1	1	132.605	0.878767	0.878898	0.0330859	2	0.00150082	41	35.2211	2.90791e-05
2	1	0	1	1	135.103	0.828791	0.828816	0.0307605	2	0.00158011	41	37.7199	2.54948e-05
2	1	0	1	1	137.602	0.778814	0.778904	0.0280338	2	0.0016532	41	40.2187	2.18356e-05
2	1	0	1	1	140.101	0.72884	0.728898	0.0246481	2	0.00171874	41	42.7175	1.79659e-05
2	1	0	1	1	142.6	0.678862	0.679017	0.0202893	2	0.00177474	41	45.2164	1.37768e-05
2	1	0	1	1	145.099	0.628886	0.629074	0.0147266	2	0.00181836	41	47.7152	9.26413e-06
2	1	0	1	1	147.597	0.578909	0.578791	0.00866601	2	0.00184718	41	50.214	5.01581e-06
2	1	0	1	1	150.126	0.528333	0.528469	0.00255121	2	0.00186123	42	52.7428	1.34823e-06
2	0	0	1	1	152.685	0.477158	0.477238	-0.00479305	2	0.00185892	42	1.5293	-2.28742e-06
2	0	0	1	1	155.214	0.426582	0.426843	-0.0163967	2	0.0018334	41	4.0581	-6.99883e-06
2	0	0	1	1	157.713	0.376606	0.376658	-0.0362055	2	0.00176954	41	6.5569	-1.36371e-05
2	0	0	1	1	160.211	0.326629	0.326851	-0.0641253	2	0.00164484	41	9.0557	-2.09594e-05
2	0	0	1	1	162.71	0.276653	0.276836	-0.0862967	2	0.00145331	41	11.5545	-2.38901e-05
2	0	0	1	1	165.209	0.226677	0.226851	-0.0869879	2	0.00123214	41	14.0533	-1.97333e-05
2	0	0	1	1	167.708	0.176701	0.177038	-0.0744396	2	0.00102931	41	16.5521	-1.31786e-05
[...]
2	0	0	1	0	192.674	0.322631	0.322866	-0.0121774	2	6.78506e-05	41	41.5183	-3.93166e-06
2	0	0	1	0	195.173	0.372607	0.372617	-0.00578714	2	4.55861e-05	41	44.0171	-2.15639e-06
2	1	0	1	0	197.747	0.424083	0.424277	0.00106367	2	3.94256e-05	43	0.3648	4.51293e-07
2	1	0	1	0	200.228	0.473709	0.473747	0.0103103	3	5.27532e-05	42	2.8461	4.88446e-06
2	1	0	1	0	202.757	0.524285	0.524586	0.0258374	3	9.68877e-05	41	5.3749	1.35539e-05
2	1	0	1	0	205.256	0.574262	0.574307	0.0497228	3	0.000189877	41	7.8737	2.85562e-05
2	1	0	1	0	207.754	0.624238	0.624317	0.0760697	3	0.000348449	41	10.3725	4.74916e-05
2	1	0	1	0	210.253	0.674214	0.674392	0.0871615	3	0.000557329	41	12.8713	5.87811e-05
2	1	0	1	0	212.752	0.72419	0.724363	0.0802851	3	0.000769099	41	15.3702	5.81555e-05
2	1	0	1	0	215.251	0.774167	0.774623	0.0686006	3	0.000955453	41	17.869	5.31396e-05
2	1	0	1	0	217.75	0.824143	0.82424	0.058487	3	0.00111399	41	20.3678	4.82073e-05
2	1	0	1	0	220.248	0.874119	0.874004	0.0512027	3	0.00125083	41	22.8666	4.47513e-05
2	1	0	1	0	222.747	0.924095	0.924048	0.046137	3	0.00137238	41	25.3654	4.26328e-05
2	1	0	1	0	225.246	0.974071	0.974326	0.0425512	3	0.00148322	41	27.8642	4.14588e-05
2	1	0	1	0	227.705	0.976718	0.976721	0.0383894	3	0.00158347	41	30.3235	3.74957e-05
2	1	0	1	0	230.204	0.926744	0.926721	0.0353304	3	0.0016749	41	32.8223	3.27414e-05
2	1	0	1	0	232.703	0.876768	0.877105	0.0329657	3	0.00175974	41	35.3211	2.89144e-05
2	1	0	1	0	235.202	0.826791	0.827039	0.0306661	3	0.00183885	41	37.8199	2.53621e-05
2	1	0	1	0	237.701	0.776815	0.776723	0.0280048	3	0.00191183	41	40.3187	2.1752e-05
2	1	0	1	0	240.199	0.726839	0.726998	0.0245943	3	0.00197722	41	42.8175	1.788e-05
2	1	0	1	0	242.698	0.676863	0.67708	0.0201981	3	0.00203301	41	45.3163	1.36757e-05
2	1	0	1	0	245.197	0.626886	0.626997	0.0145784	3	0.00207633	41	47.8151	9.14063e-06
2	1	0	1	0	247.696	0.57691	0.577085	0.00850727	3	0.00210478	41	50.3139	4.90942e-06
2	1	0	1	0	250.225	0.526334	0.526581	0.00233602	3	0.00211838	42	52.8427	1.2301e-06
2	0	0	1	0	252.783	0.475159	0.475393	-0.00519111	3	0.00211533	42	1.6292	-2.46782e-06
2	0	0	1	0	255.312	0.424583	0.424761	-0.0171608	3	0.00208834	41	4.158	-7.28922e-06
2	0	0	1	0	257.811	0.374607	0.374776	-0.0375786	3	0.00202182	41	6.6568	-1.40836e-05
2	0	0	1	0	260.31	0.324631	0.324671	-0.0656656	3	0.00189332	41	9.1556	-2.13198e-05
2	0	0	1	0	262.809	0.274654	0.274704	-0.0868813	3	0.00169884	41	11.6545	-2.38667e-05
2	0	0	1	0	265.307	0.224678	0.2249	-0.0864648	3	0.00147769	41	14.1533	-1.94459e-05
2	0	0	1	0	267.806	0.174702	0.174739	-0.0736723	3	0.00127669	41	16.6521	-1.28734e-05
2	0	0	1	0	270.305	0.124725	0.125215	-0.0615233	3	0.00110837	41	19.1509	-7.70366e-06
2	0	0	1	0	272.804	0.0747491	0.0747826	-0.0527476	3	0.000966102	41	21.6497	-3.9446e-06
2	0	0	1	0	275.303	0.0247729	0.0250075	-0.0466812	3	0.000842148	41	24.1485	-1.16738e-06
2	0	0	1	1	277.78	0.0247729	0.025017	-0.0402616	3	0.000734056	41	26.6254	-1.00723e-06
2	0	0	1	1	280.278	0.0747491	0.0749418	-0.0358683	3	0.000639427	41	29.1242	-2.68803e-06
2	0	0	1	1	282.777	0.124725	0.124931	-0.0322287	3	0.000554588	41	31.623	-4.02638e-06
2	0	0	1	1	285.276	0.174702	0.175221	-0.0284917	3	0.000478834	41	34.1218	-4.99233e-06
2	0	0	1	1	287.775	0.224678	0.224775	-0.0239482	3	0.000413275	41	36.6206	-5.38296e-06
2	0	0	1	1	290.274	0.274654	0.275063	-0.0183208	3	0.000360411	41	39.1194	-5.03938e-06
2	0	0	1	1	292.772	0.324629	0.324897	-0.0119617	3	0.000322655	41	41.6182	-3.88633e-06
2	0	0	1	1	295.271	0.374607	0.374904	-0.00558768	3	0.00030089	41	44.1171	-2.09484e-06
2	1	0	1	1	297.86	0.426382	0.426682	0.00149504	3	0.000295406	42	0.4797	6.37908e-07
2	1	0	0	1	299.936	0.467937	0.46798	0.00910503	3	0.000305892	42	2.5553	4.26097e-06

File: 240219-CV-EIS-Fe2Fe3_5mM-HCl1M-0RPM-Ag_AgCl_BLF8-GC-RDE_03_PEIS_C15.mpt
EC-Lab ASCII FILE
Nb header lines : 66

Potentio Electrochemical Impedance Spectroscopy

Run on channel : 15 (SN 19485)
User :
Electrode connection : standard
Potential control : Ewe
Ewe ctrl range : min = -1.00 V, max = 1.00 V
Ewe,I filtering : <None>
Safety Limits :
	Do not start on E overload
Channel : Floating
Acquisition started on : 02/19/2024 14:54:22.739
Loaded Setting File :  NONE
Saved on :
	File : 240219-CV-EIS-Fe2Fe3_5mM-HCl1M-0RPM-Ag_AgCl_BLF8-GC-RDE_03_PEIS_C15.mpr
	Directory : C:\Data\mathias\RDE-RPM-variation\
	Host : 192.168.0.1
Device : VMP-300 (SN 0826)
Address : USB
EC-Lab for windows v11.52 (software)
Internet server v11.52 (firmware)
Command interpretor v11.52 (firmware)
Electrode material :
Initial state :
Electrolyte :
Comments :
Cable : special
Electrode surface area : 0.001 cm²
Characteristic mass : 0.001 g
Equivalent Weight : 0.000 g/eq.
Density : 0.000 g/cm3
Volume (V) : 0.001 cm³
Record EIS quality indicators
Cycle Definition : Charge/Discharge alternance
Mode                Single sine
E (V)               0.0000
vs.                 Ref
tE (h:m:s)          0:00:0.0000
record              0
dI                  0.000
unit dI             mA
dt (s)              0.000
fi                  400.000
unit fi             kHz
ff                  100.000
unit ff             mHz
Nd                  10
Points              per decade
spacing             Logarithmic
Va (mV)             7.0
pw                  0.10
Na                  3
corr                0
E range min (V)     -1.000
E range max (V)     1.000
I Range             Auto
Bandwidth           8
nc cycles           2
goto Ns'            0
nr cycles           0
inc. cycle          1

freq/Hz	Re(Z)/Ohm	-Im(Z)/Ohm	|Z|/Ohm	Phase(Z)/deg	time/s	<Ewe>/V	<I>/mA	Cs/µF	Cp/µF	cycle number	I Range	|Ewe|/V	|I|/A	Ns	(Q-Qo)/mA.h	THD Ewe/%	NSD Ewe/%	NSR Ewe/%	|Ewe h2|/V	|Ewe h3|/V	|Ewe h4|/V	|Ewe h5|/V	|Ewe h6|/V	|Ewe h7|/V	THD I/%	NSD I/%	NSR I/%	|I h2|/A	|I h3|/A	|I h4|/A	|I h5|/A	|I h6|/A	|I h7|/A	Re(Y)/Ohm-1	Im(Y)/Ohm-1	|Y|/Ohm-1	Phase(Y)/deg	Re(C)/nF	Im(C)/nF	|C|/nF	Phase(C)/deg	Re(M)	Im(M)	|M|	Phase(M)/deg	Re(Permittivity)	Im(Permittivity)	|Permittivity|	Phase(Permittivity)/deg	Re(Resistivity)/Ohm.cm	Im(Resistivity)/Ohm.cm	|Resistivity|/Ohm.cm	Phase(Resistivity)/deg	Re(Conductivity)/mS/cm	Im(Conductivity)/mS/cm	|Conductivity|/mS/cm	Phase(Conductivity)/deg	Tan(Delta)	Loss Angle(Delta)/deg	dq/mA.h
399996	3.93573	1.34803	4.16019	-18.9069	362.413	-0.00014065	-0.0870532	0.295164	0.0309912	1	38	0.00655155	0.00157482	0	-7.80058e-05	-1	-1	-1	0	0	0	0	0	0	-1	-1	-1	0	0	0	0	0	0	0.227404	0.0778886	0.240374	18.9069	30.9912	90.4822	95.6425	-71.0931	0.0000000E+000	0.0000000E+000	0.0000000E+000	71.0931	0.0000000E+000	0.0000000E+000	0.0000000E+000	-71.0931	0.0000000E+000	0.0000000E+000	0.0000000E+000	-18.9069	0.0000000E+000	0.0000000E+000	0.0000000E+000	18.9069	2.91961	71.0931	-7.80058e-05
20032.3	4.0076	2.48887	4.71756	-31.8419	377.327	-0.000136754	-0.0409461	3.19217	0.888501	1	38	0.00726023	0.00153898	0	-0.00029614	0.854517	0.438283	13.6569	2.01104e-05	2.6139e-05	7.79494e-06	3.0819e-05	3.14891e-05	2.25464e-05	0.122684	0.0991318	1.77839	1.0218e-06	6.94028e-07	5.33223e-07	7.09035e-07	6.81983e-07	7.61198e-07	0.180073	0.111833	0.211974	31.8419	888.501	1430.67	1684.12	-58.1581	0.0000000E+000	0.0000000E+000	0.0000000E+000	58.1581	0.0000000E+000	0.0000000E+000	0.0000000E+000	-58.1581	0.0000000E+000	0.0000000E+000	0.0000000E+000	-31.8419	0.0000000E+000	0.0000000E+000	0.0000000E+000	31.8419	1.61021	58.1581	-1.64311e-05
1002.75	11.6988	35.935	37.7914	-71.9671	392.336	-0.000271769	-0.0283852	4.41681	3.99355	1	39	0.00750611	0.00019862	0	-0.000446521	0.792685	0.323611	13.6589	1.67332e-05	1.5713e-05	2.64297e-05	3.24622e-05	2.56863e-05	1.22923e-05	0.61058	0.166589	6.34377	4.29101e-07	8.00903e-07	2.79901e-07	5.37432e-07	2.95038e-07	2.47271e-07	0.00819137	0.0251612	0.026461	71.9671	3993.55	1300.12	4199.85	-18.0329	0.0000000E+000	0.0000000E+000	0.0000000E+000	18.0329	0.0000000E+000	0.0000000E+000	0.0000000E+000	-18.0329	0.0000000E+000	0.0000000E+000	0.0000000E+000	-71.9671	0.0000000E+000	0.0000000E+000	0.0000000E+000	71.9671	0.325555	18.0329	-1.05515e-05
50.2089	125.182	433.602	451.31	-73.8964	406.873	-0.000271788	-0.0263532	7.31053	6.74808	1	40	0.00679354	1.50529e-05	0	-0.000555153	1.65905	0.867237	28.7505	2.77513e-05	6.34044e-05	6.1726e-05	3.30017e-05	4.46207e-05	1.36723e-05	1.0513	0.511347	17.247	4.27691e-08	3.80023e-08	8.12605e-08	9.84559e-08	4.95679e-08	3.21333e-08	0.000614598	0.00212883	0.00221577	73.8964	6748.08	1948.19	7023.68	-16.1036	0.0000000E+000	0.0000000E+000	0.0000000E+000	16.1036	0.0000000E+000	0.0000000E+000	0.0000000E+000	-16.1036	0.0000000E+000	0.0000000E+000	0.0000000E+000	-73.8964	0.0000000E+000	0.0000000E+000	0.0000000E+000	73.8964	0.288702	16.1035	-7.76227e-06
2.51368	1998.66	4476.07	4902.02	-65.9382	425.908	-0.000205677	-0.0258939	14.1454	11.7939	1	41	0.00673127	1.37316e-06	0	-0.000691649	0.722314	0.358107	13.2877	1.61661e-05	2.26537e-05	1.84394e-05	1.65444e-05	2.11992e-05	1.51682e-05	0.764181	0.418472	13.2956	3.76839e-09	4.2738e-09	3.88201e-09	3.54592e-09	4.81897e-09	3.08791e-09	8.31741e-05	0.000186271	0.000203997	65.9382	11793.9	5266.22	12916.2	-24.0618	0.0000000E+000	0.0000000E+000	0.0000000E+000	24.0618	0.0000000E+000	0.0000000E+000	0.0000000E+000	-24.0618	0.0000000E+000	0.0000000E+000	0.0000000E+000	-65.9382	0.0000000E+000	0.0000000E+000	0.0000000E+000	65.9382	0.446521	24.0618	-2.00564e-05
0.125939	19891.2	35165.3	40401.1	-60.5054	654.147	-0.000209256	-0.0258311	35.9375	27.2262	1	41	0.00674223	1.66882e-07	0	-0.00232655	0.163076	0.0707786	2.81646	2.81513e-06	4.83039e-06	5.83006e-06	3.37704e-06	4.09118e-06	3.78502e-06	3.57504	9.80264	26.0378	3.8963e-09	2.68038e-09	2.32365e-09	1.52613e-09	1.10756e-09	9.03947e-10	1.21863e-05	2.1544e-05	2.47518e-05	60.5054	27226.2	15400.5	31280	-29.4946	0.0000000E+000	0.0000000E+000	0.0000000E+000	29.4946	0.0000000E+000	0.0000000E+000	0.0000000E+000	-29.4946	0.0000000E+000	0.0000000E+000	0.0000000E+000	-60.5054	0.0000000E+000	0.0000000E+000	0.0000000E+000	60.5054	0.565648	29.4946	-0.000349842
31751	3.90495	1.79735	4.29873	-24.7154	730.901	-0.000114255	-0.0269834	2.78888	0.487544	2	38	0.00731847	0.00170247	0	-0.00287705	0.763301	0.762303	13.5201	1.65197e-05	2.43202e-05	1.80864e-05	1.77393e-05	1.88514e-05	2.76989e-05	0.114297	0.196694	1.65749	4.21789e-07	9.88808e-07	7.82638e-07	7.34301e-07	5.44692e-07	7.52069e-07	0.211317	0.097264	0.232627	24.7154	487.544	1059.25	1166.06	-65.2846	0.0000000E+000	0.0000000E+000	0.0000000E+000	65.2846	0.0000000E+000	0.0000000E+000	0.0000000E+000	-65.2846	0.0000000E+000	0.0000000E+000	0.0000000E+000	-24.7154	0.0000000E+000	0.0000000E+000	0.0000000E+000	24.7154	2.17262	65.2846	-8.59879e-06
[...]
2519.19	6.6016	17.2623	18.4815	-69.0717	1099.18	-0.00024968	-0.026989	3.65983	3.19287	3	38	0.00638683	0.000345579	0	-0.00552344	0.792113	0.52686	15.7095	5.58689e-06	1.62532e-05	2.29369e-05	2.33453e-05	2.10991e-05	1.9829e-05	0.538141	0.345875	8.11078	6.15255e-07	8.27354e-07	5.77977e-07	5.94442e-07	1.07402e-06	4.77083e-07	0.0193274	0.0505385	0.0541081	69.0717	3192.87	1221.05	3418.39	-20.9283	0.0000000E+000	0.0000000E+000	0.0000000E+000	20.9283	0.0000000E+000	0.0000000E+000	0.0000000E+000	-20.9283	0.0000000E+000	0.0000000E+000	0.0000000E+000	-69.0717	0.0000000E+000	0.0000000E+000	0.0000000E+000	69.0717	0.38243	20.9283	-8.5732e-06
126.171	60.5943	217.144	225.44	-74.4082	1114.04	-0.000217506	-0.025922	5.80914	5.38946	3	39	0.00661007	2.93207e-05	0	-0.00562998	0.619349	0.530388	15.2262	1.64587e-05	1.71896e-05	1.81731e-05	1.36389e-05	1.4016e-05	1.69387e-05	2.05046	1.44719	41.707	2.63611e-07	1.67574e-07	3.13086e-07	1.78564e-07	1.67801e-07	2.63288e-07	0.00119225	0.00427253	0.00443576	74.4082	5389.46	1503.93	5595.37	-15.5918	0.0000000E+000	0.0000000E+000	0.0000000E+000	15.5918	0.0000000E+000	0.0000000E+000	0.0000000E+000	-15.5918	0.0000000E+000	0.0000000E+000	0.0000000E+000	-74.4082	0.0000000E+000	0.0000000E+000	0.0000000E+000	74.4082	0.279051	15.5918	-7.83786e-06
6.31569	922.222	2496.83	2661.7	-69.7279	1129.01	-0.000184745	-0.0258197	10.0928	8.88118	3	41	0.00659738	2.47864e-06	0	-0.00573592	0.944438	0.6103	24.1994	3.11151e-05	1.90315e-05	2.0665e-05	1.30549e-05	2.81127e-05	2.25884e-05	0.676548	0.245416	12.7455	6.19064e-09	6.01431e-09	5.95921e-09	6.93225e-09	6.96178e-09	5.84196e-09	0.000130172	0.000352428	0.0003757	69.7279	8881.18	3280.33	9467.62	-20.2721	0.0000000E+000	0.0000000E+000	0.0000000E+000	20.2721	0.0000000E+000	0.0000000E+000	0.0000000E+000	-20.2721	0.0000000E+000	0.0000000E+000	0.0000000E+000	-69.7279	0.0000000E+000	0.0000000E+000	0.0000000E+000	69.7279	0.369358	20.2721	-9.83094e-06
0.316193	10585.8	19731.8	22392	-61.7871	1222.72	-0.00020673	-0.0257908	25.5095	19.8083	3	41	0.00658895	2.94254e-07	0	-0.00640646	0.303498	0.180511	4.44376	5.63017e-06	8.95748e-06	1.00316e-05	6.12068e-06	5.96134e-06	7.33817e-06	1.74	2.52675	29.2256	1.87667e-09	2.7708e-09	1.88393e-09	1.94028e-09	1.20326e-09	1.45326e-09	2.11124e-05	3.93532e-05	4.46588e-05	61.7871	19808.3	10626.9	22478.9	-28.2129	0.0000000E+000	0.0000000E+000	0.0000000E+000	28.2129	0.0000000E+000	0.0000000E+000	0.0000000E+000	-28.2129	0.0000000E+000	0.0000000E+000	0.0000000E+000	-61.7871	0.0000000E+000	0.0000000E+000	0.0000000E+000	61.7871	0.536484	28.2129	-0.000140438
0.0999518	24628.2	40797.9	47655.1	-58.8822	1427.3	-0.000232033	-0.0257676	39.0294	28.6054	3	41	0.00658591	1.38199e-07	0	-0.00786647	0.203694	0.0851637	2.649	4.18236e-06	7.98313e-06	3.35535e-06	6.31353e-06	1.93431e-06	5.95569e-06	2.70249	5.3773	27.8489	1.85449e-09	1.86897e-09	1.16093e-09	1.61292e-09	8.52269e-10	1.22615e-09	1.08446e-05	1.79646e-05	2.09841e-05	58.8822	28605.4	17268	33413.3	-31.1178	0.0000000E+000	0.0000000E+000	0.0000000E+000	31.1178	0.0000000E+000	0.0000000E+000	0.0000000E+000	-31.1178	0.0000000E+000	0.0000000E+000	0.0000000E+000	-58.8822	0.0000000E+000	0.0000000E+000	0.0000000E+000	58.8822	0.603663	31.1178	-0.000438936