Folder: Thesis/Python/Data/RDE (part 16)

File: 240223-OCV-EIS-Fe2Fe3_5mM-HCl1M-1225RPM-Ag_AgCl_BLF8-GC-RDE-1minRestVSEoc-3ppf-14p1mVAmplitude_02_PEIS_C15.mpt
EC-Lab ASCII FILE
Nb header lines : 67

Potentio Electrochemical Impedance Spectroscopy

Run on channel : 15 (SN 19485)
User :
Electrode connection : standard
Potential control : Ewe
Ewe ctrl range : min = -1.00 V, max = 1.00 V
Ewe,I filtering : 50 kHz
Safety Limits :
	Do not start on E overload
Channel : Floating
Acquisition started on : 02/23/2024 14:49:54.683
Loaded Setting File :  NONE
Saved on :
	File : 240223-OCV-EIS-Fe2Fe3_5mM-HCl1M-1225RPM-Ag_AgCl_BLF8-GC-RDE-1minRestVSEoc-3ppf-14p1mVAmplitude_02_PEIS_C15.mpr
	Directory : C:\Data\mathias\RDE-RPM-variation\
	Host : 192.168.0.1
Device : VMP-300 (SN 0826)
Address : USB
EC-Lab for windows v11.52 (software)
Internet server v11.52 (firmware)
Command interpretor v11.52 (firmware)
Electrode material :
Initial state :
Electrolyte :
Comments :
Cable : special
Reference electrode : SCE Saturated Calomel Electrode (0.241 V)
Electrode surface area : 0.001 cm²
Characteristic mass : 0.001 g
Equivalent Weight : 0.000 g/eq.
Density : 0.000 g/cm3
Volume (V) : 0.001 cm³
Record EIS quality indicators
Cycle Definition : Charge/Discharge alternance
Mode                Single sine
E (V)               0.0000
vs.                 Eoc
tE (h:m:s)          0:01:0.0000
record              0
dI                  0.000
unit dI             mA
dt (s)              0.000
fi                  1.000
unit fi             MHz
ff                  100.000
unit ff             mHz
Nd                  10
Points              per decade
spacing             Logarithmic
Va (mV)             14.1
pw                  0.10
Na                  3
corr                0
E range min (V)     -1.000
E range max (V)     1.000
I Range             Auto
Bandwidth           8
nc cycles           0
goto Ns'            0
nr cycles           0
inc. cycle          1

freq/Hz	Re(Z)/Ohm	-Im(Z)/Ohm	|Z|/Ohm	Phase(Z)/deg	time/s	<Ewe>/V	<I>/mA	Cs/µF	Cp/µF	cycle number	I Range	|Ewe|/V	|I|/A	Ns	(Q-Qo)/mA.h	THD Ewe/%	NSD Ewe/%	NSR Ewe/%	|Ewe h2|/V	|Ewe h3|/V	|Ewe h4|/V	|Ewe h5|/V	|Ewe h6|/V	|Ewe h7|/V	THD I/%	NSD I/%	NSR I/%	|I h2|/A	|I h3|/A	|I h4|/A	|I h5|/A	|I h6|/A	|I h7|/A	Re(Y)/Ohm-1	Im(Y)/Ohm-1	|Y|/Ohm-1	Phase(Y)/deg	Re(C)/nF	Im(C)/nF	|C|/nF	Phase(C)/deg	Re(M)	Im(M)	|M|	Phase(M)/deg	Re(Permittivity)	Im(Permittivity)	|Permittivity|	Phase(Permittivity)/deg	Re(Resistivity)/Ohm.cm	Im(Resistivity)/Ohm.cm	|Resistivity|/Ohm.cm	Phase(Resistivity)/deg	Re(Conductivity)/mS/cm	Im(Conductivity)/mS/cm	|Conductivity|/mS/cm	Phase(Conductivity)/deg	Tan(Delta)	Loss Angle(Delta)/deg	dq/mA.h
1.00002e+06	3.53991	4.07945	5.40119	-49.0505	119.764	0.459611	-0.0113842	0.0390131	0.0222554	1	38	0.011146	0.00206362	0	-3.46054e-06	-1	-1	-1	0	0	0	0	0	0	-1	-1	-1	0	0	0	0	0	0	0.121342	0.139837	0.185144	49.0505	22.2554	19.3119	29.4661	-40.9495	0.0000000E+000	0.0000000E+000	0.0000000E+000	40.9495	0.0000000E+000	0.0000000E+000	0.0000000E+000	-40.9495	0.0000000E+000	0.0000000E+000	0.0000000E+000	-49.0505	0.0000000E+000	0.0000000E+000	0.0000000E+000	49.0505	0.86774	40.9495	-3.46054e-06
316230	3.45056	1.34888	3.70484	-21.3514	125.365	0.459603	-0.00244305	0.373115	0.0494598	1	38	0.0145558	0.00392886	0	-1.71482e-05	-1	-1	-1	0	0	0	0	0	0	-1	-1	-1	0	0	0	0	0	0	0.251391	0.0982732	0.269917	21.3514	49.4598	126.522	135.846	-68.6486	0.0000000E+000	0.0000000E+000	0.0000000E+000	68.6486	0.0000000E+000	0.0000000E+000	0.0000000E+000	-68.6486	0.0000000E+000	0.0000000E+000	0.0000000E+000	-21.3514	0.0000000E+000	0.0000000E+000	0.0000000E+000	21.3514	2.55809	68.6486	-8.64679e-06
100004	3.42617	1.04459	3.58188	-16.9557	131.102	0.459608	-0.00186771	1.52356	0.129577	1	38	0.0145632	0.00406581	0	-1.87659e-05	0.519906	0.360683	8.96818	2.98627e-05	3.16071e-05	1.94478e-05	2.30024e-05	2.52122e-05	4.23243e-05	0.067056	0.0233487	0.701671	2.32082e-06	8.28131e-07	7.47809e-07	4.63003e-07	4.77269e-07	4.59742e-07	0.267047	0.0814187	0.279183	16.9557	129.577	425.004	444.318	-73.0443	0.0000000E+000	0.0000000E+000	0.0000000E+000	73.0443	0.0000000E+000	0.0000000E+000	0.0000000E+000	-73.0443	0.0000000E+000	0.0000000E+000	0.0000000E+000	-16.9557	0.0000000E+000	0.0000000E+000	0.0000000E+000	16.9557	3.27993	73.0443	8.26058e-06
31621.1	3.61806	2.10796	4.18734	-30.226	136.837	0.45962	-0.00174297	2.38771	0.605101	1	38	0.0146531	0.00349939	0	-2.18099e-05	0.503438	0.356105	8.58765	3.16263e-05	3.04673e-05	3.49932e-05	1.90198e-05	2.51652e-05	2.49561e-05	0.0554618	0.0485591	0.822244	4.3207e-07	1.32271e-06	6.86671e-07	8.65512e-07	3.38365e-07	5.22416e-07	0.206347	0.120222	0.238815	30.226	605.101	1038.58	1202	-59.774	0.0000000E+000	0.0000000E+000	0.0000000E+000	59.774	0.0000000E+000	0.0000000E+000	0.0000000E+000	-59.774	0.0000000E+000	0.0000000E+000	0.0000000E+000	-30.226	0.0000000E+000	0.0000000E+000	0.0000000E+000	30.226	1.71638	59.774	-2.87266e-06
10002.2	4.21512	5.7177	7.10347	-53.6021	142.575	0.459635	-0.00169461	2.78293	1.80303	1	38	0.0145934	0.0020544	0	-2.4657e-05	0.577501	0.212177	8.88332	5.61825e-05	2.41153e-05	3.1258e-05	9.99698e-06	3.47922e-05	2.33637e-05	0.200171	0.0374223	1.41549	3.66634e-06	5.10403e-07	9.16557e-07	1.09819e-06	6.28988e-07	5.25205e-07	0.083535	0.113313	0.140776	53.6021	1803.03	1329.21	2240.02	-36.3979	0.0000000E+000	0.0000000E+000	0.0000000E+000	36.3979	0.0000000E+000	0.0000000E+000	0.0000000E+000	-36.3979	0.0000000E+000	0.0000000E+000	0.0000000E+000	-53.6021	0.0000000E+000	0.0000000E+000	0.0000000E+000	53.6021	0.737206	36.3979	-5.27199e-06
3163.04	6.37973	15.9141	17.1453	-68.1549	148.353	0.459513	-0.00220668	3.16179	2.72402	1	38	0.0138316	0.00080673	0	-2.69588e-05	0.538306	0.397455	9.50382	2.83613e-05	3.50463e-05	3.1595e-05	1.53428e-05	3.76163e-05	1.68863e-05	0.851703	0.167857	3.55357	6.11684e-06	2.75798e-06	5.94605e-07	7.65013e-07	4.98815e-07	7.05686e-07	0.0217027	0.054137	0.0583251	68.1549	2724.02	1092.02	2934.75	-21.8451	0.0000000E+000	0.0000000E+000	0.0000000E+000	21.8451	0.0000000E+000	0.0000000E+000	0.0000000E+000	-21.8451	0.0000000E+000	0.0000000E+000	0.0000000E+000	-68.1549	0.0000000E+000	0.0000000E+000	0.0000000E+000	68.1549	0.400885	21.8451	-8.83526e-07
999.682	13.4731	43.0307	45.0907	-72.6144	154.137	0.459486	-0.000383592	3.69981	3.36948	1	39	0.0139359	0.000309064	0	-3.19583e-05	0.512147	0.297174	8.84602	2.75342e-05	3.60005e-05	2.20413e-05	9.31916e-06	3.64866e-05	2.4775e-05	1.185	0.19672	4.13647	2.88136e-06	2.05894e-06	1.81046e-07	7.86567e-07	2.20966e-07	2.11953e-07	0.00662667	0.0211644	0.0221775	72.6144	3369.48	1055	3530.79	-17.3856	0.0000000E+000	0.0000000E+000	0.0000000E+000	17.3856	0.0000000E+000	0.0000000E+000	0.0000000E+000	-17.3856	0.0000000E+000	0.0000000E+000	0.0000000E+000	-72.6144	0.0000000E+000	0.0000000E+000	0.0000000E+000	72.6144	0.313105	17.3856	-3.1746e-07
316.316	35.7333	111.579	117.161	-72.2423	159.667	0.459551	-0.000496542	4.50938	4.08991	1	39	0.0128653	0.000109809	0	-3.21584e-05	0.43772	0.186375	9.85014	3.01406e-05	1.81153e-05	2.21761e-05	2.34307e-05	2.08703e-05	1.68134e-05	0.96474	0.305885	11.9357	7.11162e-07	3.74364e-07	2.48114e-07	5.35309e-07	2.06646e-07	2.46762e-07	0.00260319	0.00812859	0.00853525	72.2423	4089.91	1309.8	4294.53	-17.7577	0.0000000E+000	0.0000000E+000	0.0000000E+000	17.7577	0.0000000E+000	0.0000000E+000	0.0000000E+000	-17.7577	0.0000000E+000	0.0000000E+000	0.0000000E+000	-72.2423	0.0000000E+000	0.0000000E+000	0.0000000E+000	72.2423	0.320252	17.7578	-1.7355e-07
[...]
9.99682	994.174	1269.67	1612.59	-51.9384	176.677	0.459529	-9.26792e-05	12.5391	7.77323	1	41	0.0141188	8.75535e-06	0	-3.24094e-05	0.992771	0.584643	17.6761	3.01816e-05	3.64964e-05	6.35409e-05	4.14103e-05	3.75333e-05	8.59821e-05	1.02482	0.257544	5.65661	7.49332e-08	4.15948e-08	1.5973e-08	1.08536e-08	7.1259e-09	1.40531e-08	0.000382309	0.000488251	0.000620121	51.9384	7773.23	6086.58	9872.67	-38.0616	0.0000000E+000	0.0000000E+000	0.0000000E+000	38.0616	0.0000000E+000	0.0000000E+000	0.0000000E+000	-38.0616	0.0000000E+000	0.0000000E+000	0.0000000E+000	-51.9384	0.0000000E+000	0.0000000E+000	0.0000000E+000	51.9384	0.783018	38.0616	1.17158e-09
3.16296	2393.7	1574.94	2865.36	-33.343	185.117	0.459536	-9.39485e-05	31.9493	9.65238	1	41	0.0140996	4.92073e-06	0	-3.26883e-05	0.29928	0.319215	7.82292	1.76497e-05	1.46921e-05	1.42055e-05	2.07059e-05	1.14782e-05	1.85544e-05	0.859588	0.170519	4.70546	3.68953e-08	1.73479e-08	3.274e-09	8.67712e-09	3.23667e-09	3.89661e-09	0.00029155	0.000191826	0.000348997	33.343	9652.38	14670.3	17561	-56.657	0.0000000E+000	0.0000000E+000	0.0000000E+000	56.657	0.0000000E+000	0.0000000E+000	0.0000000E+000	-56.657	0.0000000E+000	0.0000000E+000	0.0000000E+000	-33.343	0.0000000E+000	0.0000000E+000	0.0000000E+000	33.343	1.51987	56.657	-1.63781e-07
1.00006	3586.72	1088.12	3748.15	-16.8765	208.866	0.459525	-9.32196e-05	146.257	12.3264	1	42	0.0140846	3.75775e-06	0	-3.30456e-05	0.242116	0.114727	4.25472	1.81507e-05	1.41875e-05	9.58178e-06	1.65831e-05	6.55646e-06	8.5283e-06	0.830817	0.0452362	1.22921	2.78193e-08	1.34734e-08	4.77039e-10	4.26338e-09	5.03234e-10	5.04926e-10	0.000255308	7.74541e-05	0.000266799	16.8765	12326.4	40631.1	42459.7	-73.1235	0.0000000E+000	0.0000000E+000	0.0000000E+000	73.1235	0.0000000E+000	0.0000000E+000	0.0000000E+000	-73.1235	0.0000000E+000	0.0000000E+000	0.0000000E+000	-16.8765	0.0000000E+000	0.0000000E+000	0.0000000E+000	16.8765	3.29625	73.1235	1.55475e-07
0.316193	4126.01	559.696	4163.8	-7.72505	274.664	0.459535	-9.59571e-05	899.323	16.2495	1	42	0.0140912	3.38421e-06	0	-3.5343e-05	0.1276	0.0783296	2.32327	4.45056e-06	6.97548e-06	5.84437e-06	9.49085e-06	5.51914e-06	6.85474e-06	0.82652	0.0272643	1.33103	2.53689e-08	1.13851e-08	3.06146e-10	2.94186e-09	4.6348e-10	3.47429e-10	0.000237986	3.22829e-05	0.000240165	7.72505	16249.5	119789	120887	-82.2749	0.0000000E+000	0.0000000E+000	0.0000000E+000	82.2749	0.0000000E+000	0.0000000E+000	0.0000000E+000	-82.2749	0.0000000E+000	0.0000000E+000	0.0000000E+000	-7.72505	0.0000000E+000	0.0000000E+000	0.0000000E+000	7.72505	7.37188	82.2749	-1.07514e-06
0.0999518	4346.4	247.709	4353.45	-3.26186	479.247	0.459538	-9.34147e-05	6428.17	20.8115	1	42	0.0140915	3.23686e-06	0	-4.00084e-05	0.142818	0.0431763	1.39781	4.75518e-06	1.06096e-05	2.65497e-06	1.3912e-05	5.23753e-06	4.11632e-06	0.873698	0.0263386	1.36384	2.60496e-08	1.07347e-08	1.5801e-10	2.40569e-09	2.47087e-10	1.6698e-10	0.000229331	1.307e-05	0.000229703	3.26186	20811.5	365167	365760	-86.7381	0.0000000E+000	0.0000000E+000	0.0000000E+000	86.7381	0.0000000E+000	0.0000000E+000	0.0000000E+000	-86.7381	0.0000000E+000	0.0000000E+000	0.0000000E+000	-3.26186	0.0000000E+000	0.0000000E+000	0.0000000E+000	3.26186	17.5464	86.7381	-2.26641e-06

File: 240223-OCV-EIS-Fe2Fe3_5mM-HCl1M-1225RPM-Ag_AgCl_BLF8-GC-RDE-1minRestVSEoc-3ppf-14p1mVAmplitude_03_OCV_C15.mpt
EC-Lab ASCII FILE
Nb header lines : 47

Open Circuit Voltage

Run on channel : 15 (SN 19485)
User :
Electrode connection : standard
Potential control : Ewe
Ewe ctrl range : min = -1.00 V, max = 1.00 V
Ewe,I filtering : 50 kHz
Safety Limits :
	Do not start on E overload
Channel : Floating
Acquisition started on : 02/23/2024 14:49:54.683
Loaded Setting File :  NONE
Saved on :
	File : 240223-OCV-EIS-Fe2Fe3_5mM-HCl1M-1225RPM-Ag_AgCl_BLF8-GC-RDE-1minRestVSEoc-3ppf-14p1mVAmplitude_03_OCV_C15.mpr
	Directory : C:\Data\mathias\RDE-RPM-variation\
	Host : 192.168.0.1
Device : VMP-300 (SN 0826)
Address : USB
EC-Lab for windows v11.52 (software)
Internet server v11.52 (firmware)
Command interpretor v11.52 (firmware)
Electrode material :
Initial state :
Electrolyte :
Comments :
Cable : special
Reference electrode : SCE Saturated Calomel Electrode (0.241 V)
Electrode surface area : 0.001 cm²
Characteristic mass : 0.001 g
Equivalent Weight : 0.000 g/eq.
Density : 0.000 g/cm3
Volume (V) : 0.001 cm³
Record EIS quality indicators
Cycle Definition : Charge/Discharge alternance
tR (h:m:s)          0:01:0.0000
dER/dt (mV/h)       1.0
record              <Ewe>
dER (mV)            0.00
dtR (s)             0.5000
E range min (V)     -1.000
E range max (V)     1.000

mode	error	time/s	<Ewe/V>
3	0	479.747	0.458724
3	0	480.247	0.459637
3	0	480.747	0.459783
3	0	481.247	0.459827
3	0	481.747	0.459843
3	0	482.247	0.459855
3	0	482.747	0.459855
3	0	483.247	0.459853
3	0	483.747	0.459849
3	0	484.247	0.459848
3	0	484.747	0.459848
3	0	485.247	0.459846
3	0	485.747	0.459847
3	0	486.247	0.459842
3	0	486.747	0.459841
3	0	487.247	0.45984
3	0	487.747	0.459844
3	0	488.247	0.459841
3	0	488.747	0.459839
3	0	489.247	0.459836
3	0	489.747	0.45984
3	0	490.247	0.459836
3	0	490.747	0.459836
3	0	491.247	0.45984
3	0	491.747	0.459839
3	0	492.247	0.459837
3	0	492.747	0.459835
3	0	493.247	0.459837
3	0	493.747	0.459835
3	0	494.247	0.459834
3	0	494.747	0.459832
3	0	495.247	0.459831
3	0	495.747	0.459833
3	0	496.247	0.459831
3	0	496.747	0.459836
3	0	497.247	0.459838
3	0	497.747	0.459836
3	0	498.247	0.459836
3	0	498.747	0.459835
3	0	499.247	0.459829
3	0	499.747	0.459819
3	0	500.247	0.459818
3	0	500.747	0.459818
3	0	501.247	0.459824
3	0	501.747	0.459819
3	0	502.247	0.459819
3	0	502.747	0.459818
3	0	503.247	0.459821
3	0	503.747	0.459816
3	0	504.247	0.459812
3	0	504.747	0.459817
3	0	505.247	0.459816
3	0	505.747	0.459816
3	0	506.247	0.459813
3	0	506.747	0.459812
3	0	507.247	0.459809
3	0	507.747	0.459812
3	0	508.247	0.459815
3	0	508.747	0.459811
3	0	509.247	0.459812
3	0	509.747	0.459813
3	0	510.247	0.459811
3	0	510.747	0.459813
3	0	511.247	0.459815
3	0	511.747	0.459816
3	0	512.247	0.459812
3	0	512.747	0.459812
3	0	513.247	0.459815
3	0	513.747	0.459813
3	0	514.247	0.459818
3	0	514.747	0.45981
3	0	515.247	0.459809
3	0	515.747	0.459808
3	0	516.247	0.459813
3	0	516.747	0.459814
3	0	517.247	0.459813
3	0	517.747	0.459808
3	0	518.247	0.459809
3	0	518.747	0.459813
3	0	519.247	0.45981
3	0	519.747	0.45981
3	0	520.247	0.459812
3	0	520.747	0.459812
3	0	521.247	0.459813
3	0	521.747	0.459815
3	0	522.247	0.459816
3	0	522.747	0.45981
3	0	523.247	0.459809
3	0	523.747	0.459812
3	0	524.247	0.459813
3	0	524.747	0.459816
3	0	525.247	0.459814
3	0	525.747	0.459824
3	0	526.247	0.459822
3	0	526.747	0.459824
3	0	527.247	0.459826
3	0	527.747	0.459826
3	0	528.247	0.459821
3	0	528.747	0.459822
3	0	529.247	0.459816
3	0	529.747	0.459816
3	0	530.247	0.459817
3	0	530.747	0.459818
3	0	531.247	0.459813
3	0	531.747	0.459814
3	0	532.247	0.459819
3	0	532.747	0.459815
3	0	533.247	0.459815
3	0	533.747	0.459809
3	0	534.247	0.459808
3	0	534.747	0.459808
3	0	535.247	0.459808
3	0	535.747	0.459808
3	0	535.983	0.459807

File: 240223-OCV-EIS-Fe2Fe3_5mM-HCl1M-1225RPM-Ag_AgCl_BLF8-GC-RDE-1minRestVSEoc-3ppf-14p1mVAmplitude_04_PEIS_C15.mpt
EC-Lab ASCII FILE
Nb header lines : 67

Potentio Electrochemical Impedance Spectroscopy

Run on channel : 15 (SN 19485)
User :
Electrode connection : standard
Potential control : Ewe
Ewe ctrl range : min = -1.00 V, max = 1.00 V
Ewe,I filtering : 50 kHz
Safety Limits :
	Do not start on E overload
Channel : Floating
Acquisition started on : 02/23/2024 14:49:54.683
Loaded Setting File :  NONE
Saved on :
	File : 240223-OCV-EIS-Fe2Fe3_5mM-HCl1M-1225RPM-Ag_AgCl_BLF8-GC-RDE-1minRestVSEoc-3ppf-14p1mVAmplitude_04_PEIS_C15.mpr
	Directory : C:\Data\mathias\RDE-RPM-variation\
	Host : 192.168.0.1
Device : VMP-300 (SN 0826)
Address : USB
EC-Lab for windows v11.52 (software)
Internet server v11.52 (firmware)
Command interpretor v11.52 (firmware)
Electrode material :
Initial state :
Electrolyte :
Comments :
Cable : special
Reference electrode : SCE Saturated Calomel Electrode (0.241 V)
Electrode surface area : 0.001 cm²
Characteristic mass : 0.001 g
Equivalent Weight : 0.000 g/eq.
Density : 0.000 g/cm3
Volume (V) : 0.001 cm³
Record EIS quality indicators
Cycle Definition : Charge/Discharge alternance
Mode                Single sine
E (V)               0.0000
vs.                 Eoc
tE (h:m:s)          0:01:0.0000
record              0
dI                  0.000
unit dI             mA
dt (s)              0.000
fi                  1.000
unit fi             MHz
ff                  100.000
unit ff             mHz
Nd                  10
Points              per decade
spacing             Logarithmic
Va (mV)             14.1
pw                  0.10
Na                  3
corr                0
E range min (V)     -1.000
E range max (V)     1.000
I Range             Auto
Bandwidth           8
nc cycles           0
goto Ns'            0
nr cycles           0
inc. cycle          1

freq/Hz	Re(Z)/Ohm	-Im(Z)/Ohm	|Z|/Ohm	Phase(Z)/deg	time/s	<Ewe>/V	<I>/mA	Cs/µF	Cp/µF	cycle number	I Range	|Ewe|/V	|I|/A	Ns	(Q-Qo)/mA.h	THD Ewe/%	NSD Ewe/%	NSR Ewe/%	|Ewe h2|/V	|Ewe h3|/V	|Ewe h4|/V	|Ewe h5|/V	|Ewe h6|/V	|Ewe h7|/V	THD I/%	NSD I/%	NSR I/%	|I h2|/A	|I h3|/A	|I h4|/A	|I h5|/A	|I h6|/A	|I h7|/A	Re(Y)/Ohm-1	Im(Y)/Ohm-1	|Y|/Ohm-1	Phase(Y)/deg	Re(C)/nF	Im(C)/nF	|C|/nF	Phase(C)/deg	Re(M)	Im(M)	|M|	Phase(M)/deg	Re(Permittivity)	Im(Permittivity)	|Permittivity|	Phase(Permittivity)/deg	Re(Resistivity)/Ohm.cm	Im(Resistivity)/Ohm.cm	|Resistivity|/Ohm.cm	Phase(Resistivity)/deg	Re(Conductivity)/mS/cm	Im(Conductivity)/mS/cm	|Conductivity|/mS/cm	Phase(Conductivity)/deg	Tan(Delta)	Loss Angle(Delta)/deg	dq/mA.h
1.00002e+06	3.54239	4.06833	5.39443	-48.9531	599.17	0.459656	-0.0113283	0.0391197	0.0222504	1	38	0.0111288	0.00206303	0	-2.83842e-06	-1	-1	-1	0	0	0	0	0	0	-1	-1	-1	0	0	0	0	0	0	0.121732	0.139806	0.185376	48.9531	22.2504	19.3739	29.503	-41.0469	0.0000000E+000	0.0000000E+000	0.0000000E+000	41.0469	0.0000000E+000	0.0000000E+000	0.0000000E+000	-41.0469	0.0000000E+000	0.0000000E+000	0.0000000E+000	-48.9531	0.0000000E+000	0.0000000E+000	0.0000000E+000	48.9531	0.870723	41.0468	-2.83842e-06
316230	3.44841	1.34933	3.70301	-21.37	604.771	0.459695	-0.00215445	0.37299	0.0495254	1	38	0.0145732	0.00393551	0	-7.9556e-06	-1	-1	-1	0	0	0	0	0	0	-1	-1	-1	0	0	0	0	0	0	0.251484	0.0984036	0.270051	21.37	49.5254	126.569	135.914	-68.63	0.0000000E+000	0.0000000E+000	0.0000000E+000	68.63	0.0000000E+000	0.0000000E+000	0.0000000E+000	-68.63	0.0000000E+000	0.0000000E+000	0.0000000E+000	-21.37	0.0000000E+000	0.0000000E+000	0.0000000E+000	21.37	2.55564	68.63	3.28723e-06
100004	3.42278	1.04539	3.57887	-16.9839	610.507	0.459678	-0.00175041	1.52238	0.129895	1	38	0.0145699	0.00407108	0	-7.08606e-06	0.449409	0.317141	8.89515	2.06822e-05	1.78303e-05	2.17635e-05	2.10157e-05	3.55176e-05	3.17588e-05	0.0632215	0.023742	0.693787	1.79056e-06	1.2683e-06	8.50132e-07	3.2267e-07	4.93454e-07	6.90101e-07	0.267232	0.0816187	0.279418	16.9839	129.895	425.297	444.691	-73.0161	0.0000000E+000	0.0000000E+000	0.0000000E+000	73.0161	0.0000000E+000	0.0000000E+000	0.0000000E+000	-73.0161	0.0000000E+000	0.0000000E+000	0.0000000E+000	-16.9839	0.0000000E+000	0.0000000E+000	0.0000000E+000	16.9839	3.27415	73.0161	-2.01948e-06
31621.1	3.61681	2.12051	4.1926	-30.3829	616.241	0.459672	-0.0025827	2.37357	0.60718	1	38	0.0146697	0.00349896	0	-9.54467e-06	0.507433	0.210228	9.01318	3.09724e-05	3.50939e-05	1.54989e-05	3.84386e-05	2.00236e-05	2.75278e-05	0.0623646	0.0711498	0.822559	5.92163e-07	1.28037e-06	8.96126e-07	3.73165e-07	9.27327e-07	4.52763e-07	0.205759	0.120635	0.238516	30.3829	607.18	1035.62	1200.49	-59.6171	0.0000000E+000	0.0000000E+000	0.0000000E+000	59.6171	0.0000000E+000	0.0000000E+000	0.0000000E+000	-59.6171	0.0000000E+000	0.0000000E+000	0.0000000E+000	-30.3829	0.0000000E+000	0.0000000E+000	0.0000000E+000	30.3829	1.70563	59.6171	-5.04925e-06
10002.2	4.22416	5.75922	7.14228	-53.7414	621.975	0.459689	-0.00152704	2.76287	1.79644	1	38	0.0146554	0.00205192	0	-3.8559e-06	0.561193	0.222762	8.92734	3.02016e-05	4.16277e-05	3.17343e-05	3.01879e-05	2.70925e-05	2.83221e-05	0.209932	0.0524349	1.41618	3.90386e-06	8.63105e-07	7.50049e-07	9.0797e-07	5.49512e-07	6.22286e-07	0.0828069	0.112899	0.140011	53.7414	1796.44	1317.62	2227.85	-36.2586	0.0000000E+000	0.0000000E+000	0.0000000E+000	36.2586	0.0000000E+000	0.0000000E+000	0.0000000E+000	-36.2586	0.0000000E+000	0.0000000E+000	0.0000000E+000	-53.7414	0.0000000E+000	0.0000000E+000	0.0000000E+000	53.7414	0.73346	36.2586	-4.77355e-06
3163.04	6.35385	16.0073	17.2222	-68.3501	627.756	0.459535	-0.00220482	3.14339	2.71554	1	38	0.0139791	0.000811691	0	-5.94978e-06	0.49328	0.356403	9.14776	1.79566e-05	2.88429e-05	2.24931e-05	2.88669e-05	3.17145e-05	2.67572e-05	0.778457	0.117217	3.46826	5.76552e-06	2.26811e-06	5.01764e-07	5.83091e-07	6.90542e-07	4.45407e-07	0.021422	0.0539685	0.0580647	68.3501	2715.54	1077.89	2921.64	-21.6499	0.0000000E+000	0.0000000E+000	0.0000000E+000	21.6499	0.0000000E+000	0.0000000E+000	0.0000000E+000	-21.6499	0.0000000E+000	0.0000000E+000	0.0000000E+000	-68.3501	0.0000000E+000	0.0000000E+000	0.0000000E+000	68.3501	0.396935	21.6499	-1.95541e-07
999.682	13.5643	43.2545	45.3314	-72.5889	633.54	0.459537	-0.000417326	3.68068	3.35112	1	39	0.0140833	0.000310675	0	-7.98839e-06	0.538225	0.270905	9.07472	1.13497e-05	2.99068e-05	2.34925e-05	4.11156e-05	2.99734e-05	2.91776e-05	1.18676	0.157494	4.27961	2.88619e-06	2.05934e-06	2.20945e-07	8.10279e-07	2.6314e-07	4.15943e-07	0.00660084	0.021049	0.0220597	72.5889	3351.12	1050.89	3512.04	-17.4111	0.0000000E+000	0.0000000E+000	0.0000000E+000	17.4111	0.0000000E+000	0.0000000E+000	0.0000000E+000	-17.4111	0.0000000E+000	0.0000000E+000	0.0000000E+000	-72.5889	0.0000000E+000	0.0000000E+000	0.0000000E+000	72.5889	0.313594	17.4111	2.16078e-08
316.316	35.7663	112.143	117.708	-72.3107	639.068	0.459562	-0.000176715	4.48671	4.07246	1	39	0.0130073	0.000110505	0	-8.22119e-06	0.521157	0.266157	9.69174	2.4011e-05	2.64916e-05	1.75975e-05	2.47856e-05	2.82248e-05	2.83901e-05	1.04422	0.361025	11.863	8.05858e-07	3.9409e-07	1.63085e-07	4.85308e-07	1.70153e-07	2.86017e-07	0.00258143	0.0080939	0.00849559	72.3107	4072.46	1298.85	4274.57	-17.6893	0.0000000E+000	0.0000000E+000	0.0000000E+000	17.6893	0.0000000E+000	0.0000000E+000	0.0000000E+000	-17.6893	0.0000000E+000	0.0000000E+000	0.0000000E+000	-72.3107	0.0000000E+000	0.0000000E+000	0.0000000E+000	72.3107	0.318936	17.6893	-3.63675e-09
[...]
9.99682	999.684	1283.82	1627.13	-52.0929	655.859	0.459556	-7.52895e-05	12.4009	7.71998	1	41	0.0128888	7.92116e-06	0	-8.67885e-06	1.14509	0.691509	19.4916	9.19861e-05	3.16616e-05	5.41573e-05	5.8082e-05	3.76459e-05	5.2708e-05	0.782401	0.179759	6.25712	4.92808e-08	3.06008e-08	1.16597e-08	1.23785e-08	3.77612e-09	7.90161e-09	0.000377586	0.000484906	0.000614577	52.0929	7719.98	6011.38	9784.42	-37.9071	0.0000000E+000	0.0000000E+000	0.0000000E+000	37.9071	0.0000000E+000	0.0000000E+000	0.0000000E+000	-37.9071	0.0000000E+000	0.0000000E+000	0.0000000E+000	-52.0929	0.0000000E+000	0.0000000E+000	0.0000000E+000	52.0929	0.778679	37.9071	-8.36349e-08
3.16296	2417.82	1608.15	2903.79	-33.6289	664.301	0.459593	-7.24953e-05	31.2896	9.59675	1	41	0.0128897	4.43894e-06	0	-8.78888e-06	0.470862	0.267121	8.68439	1.09759e-05	1.52155e-05	2.87248e-05	3.57509e-05	2.04503e-05	1.96918e-05	0.884385	0.163153	5.28991	3.34341e-08	1.52525e-08	4.8266e-09	9.14968e-09	5.31064e-09	3.96403e-09	0.000286743	0.00019072	0.000344378	33.6289	9596.75	14428.5	17328.5	-56.3711	0.0000000E+000	0.0000000E+000	0.0000000E+000	56.3711	0.0000000E+000	0.0000000E+000	0.0000000E+000	-56.3711	0.0000000E+000	0.0000000E+000	0.0000000E+000	-33.6289	0.0000000E+000	0.0000000E+000	0.0000000E+000	33.6289	1.50347	56.3711	5.00943e-08
1.00006	3635.56	1113.37	3802.22	-17.0269	688.05	0.459571	-7.28399e-05	142.94	12.2562	1	42	0.0128682	3.38438e-06	0	-9.50807e-06	0.234197	0.132717	4.78656	9.59839e-06	9.30221e-06	1.13778e-05	1.09825e-05	1.46259e-05	1.02228e-05	0.742016	0.0318013	1.35968	2.24875e-08	1.04513e-08	4.21736e-10	3.88448e-09	3.26832e-10	3.20924e-10	0.000251476	7.7013e-05	0.000263004	17.0269	12256.2	40021.2	41855.8	-72.9731	0.0000000E+000	0.0000000E+000	0.0000000E+000	72.9731	0.0000000E+000	0.0000000E+000	0.0000000E+000	-72.9731	0.0000000E+000	0.0000000E+000	0.0000000E+000	-17.0269	0.0000000E+000	0.0000000E+000	0.0000000E+000	17.0269	3.26537	72.9731	-4.14294e-07
0.316193	4186.97	571.294	4225.77	-7.76978	753.846	0.45957	-7.40094e-05	881.065	16.1034	1	42	0.0128659	3.04462e-06	0	-1.03033e-05	0.160413	0.0842328	2.61265	6.56897e-06	7.55957e-06	6.75488e-06	9.56488e-06	6.15578e-06	8.54416e-06	0.758244	0.0463517	1.50754	2.1082e-08	8.9905e-09	3.2801e-10	2.71189e-09	2.90228e-10	1.70314e-10	0.000234471	3.19925e-05	0.000236643	7.76978	16103.4	118020	119114	-82.2302	0.0000000E+000	0.0000000E+000	0.0000000E+000	82.2302	0.0000000E+000	0.0000000E+000	0.0000000E+000	-82.2302	0.0000000E+000	0.0000000E+000	0.0000000E+000	-7.76978	0.0000000E+000	0.0000000E+000	0.0000000E+000	7.76978	7.32892	82.2302	7.33163e-08
0.0999518	4410.89	252.984	4418.14	-3.28257	958.428	0.459584	-7.5617e-05	6294.13	20.6369	1	42	0.0128645	2.91175e-06	0	-1.51537e-05	0.110169	0.0733576	1.51817	3.40878e-06	9.18614e-06	3.35694e-06	7.26222e-06	2.21966e-06	2.98231e-06	0.779826	0.0479882	1.51822	2.09867e-08	8.33216e-09	1.74952e-10	2.33922e-09	2.22136e-10	2.86063e-10	0.000225968	1.29603e-05	0.00022634	3.28257	20636.9	359813	360405	-86.7174	0.0000000E+000	0.0000000E+000	0.0000000E+000	86.7174	0.0000000E+000	0.0000000E+000	0.0000000E+000	-86.7174	0.0000000E+000	0.0000000E+000	0.0000000E+000	-3.28257	0.0000000E+000	0.0000000E+000	0.0000000E+000	3.28257	17.4354	86.7174	-5.59999e-07