Folder: Thesis/Python/Data/GoldElectrode/240313 (part 3)

File: 240313-CVEIS_Activation-0p5H2SO4-Ag_AgCl_BLF8-Au_RDE-80cycles_08_PEIS_C15.mpt
EC-Lab ASCII FILE
Nb header lines : 66

Potentio Electrochemical Impedance Spectroscopy

Run on channel : 15 (SN 19485)
User :
Electrode connection : standard
Potential control : Ewe
Ewe ctrl range : min = -2.50 V, max = 2.50 V
Ewe,I filtering : 50 kHz
Safety Limits :
	Do not start on E overload
Channel : Floating
Acquisition started on : 03/13/2024 15:25:11.595
Loaded Setting File :  C:\Data\mathias\GoldElectrode\240308-CVEIS_Activation-0p5H2SO4-Ag_AgCl_BLF8-Au_RDE-80cycles-C15.mps
Saved on :
	File : 240313-CVEIS_Activation-0p5H2SO4-Ag_AgCl_BLF8-Au_RDE-80cycles_08_PEIS_C15.mpr
	Directory : C:\Data\mathias\GoldElectrode\
	Host : 192.168.0.1
Device : VMP-300 (SN 0826)
Address : USB
EC-Lab for windows v11.52 (software)
Internet server v11.52 (firmware)
Command interpretor v11.52 (firmware)
Electrode material :
Initial state :
Electrolyte :
Comments :
Cable : special
Electrode surface area : 0.001 cm²
Characteristic mass : 0.001 g
Equivalent Weight : 0.000 g/eq.
Density : 0.000 g/cm3
Volume (V) : 0.001 cm³
Record EIS quality indicators
Cycle Definition : Charge/Discharge alternance
Mode                Single sine
E (V)               0.0000
vs.                 Eoc
tE (h:m:s)          0:00:0.0000
record              0
dI                  0.000
unit dI             mA
dt (s)              0.000
fi                  100.000
unit fi             kHz
ff                  100.000
unit ff             Hz
Nd                  10
Points              per decade
spacing             Logarithmic
Va (mV)             5.0
pw                  0.10
Na                  2
corr                0
E range min (V)     -2.500
E range max (V)     2.500
I Range             Auto
Bandwidth           8
nc cycles           0
goto Ns'            0
nr cycles           0
inc. cycle          0

freq/Hz	Re(Z)/Ohm	-Im(Z)/Ohm	|Z|/Ohm	Phase(Z)/deg	time/s	<Ewe>/V	<I>/mA	Cs/µF	Cp/µF	cycle number	I Range	|Ewe|/V	|I|/A	Ns	(Q-Qo)/mA.h	THD Ewe/%	NSD Ewe/%	NSR Ewe/%	|Ewe h2|/V	|Ewe h3|/V	|Ewe h4|/V	|Ewe h5|/V	|Ewe h6|/V	|Ewe h7|/V	THD I/%	NSD I/%	NSR I/%	|I h2|/A	|I h3|/A	|I h4|/A	|I h5|/A	|I h6|/A	|I h7|/A	Re(Y)/Ohm-1	Im(Y)/Ohm-1	|Y|/Ohm-1	Phase(Y)/deg	Re(C)/nF	Im(C)/nF	|C|/nF	Phase(C)/deg	Re(M)	Im(M)	|M|	Phase(M)/deg	Re(Permittivity)	Im(Permittivity)	|Permittivity|	Phase(Permittivity)/deg	Re(Resistivity)/Ohm.cm	Im(Resistivity)/Ohm.cm	|Resistivity|/Ohm.cm	Phase(Resistivity)/deg	Re(Conductivity)/mS/cm	Im(Conductivity)/mS/cm	|Conductivity|/mS/cm	Phase(Conductivity)/deg	Tan(Delta)	Loss Angle(Delta)/deg	dq/mA.h
100004	7.42831	0.649007	7.4566	-4.99322	1163.72	0.448435	-0.0190777	2.45219	0.0185768	1	38	0.00484518	0.000649783	0	-5.7318e-06	2.61235	1.34419	51.6468	5.3975e-05	5.11574e-05	5.72473e-05	1.81133e-05	3.81121e-05	6.03053e-05	0.321008	0.19264	5.92382	7.49394e-07	8.68602e-07	7.86504e-07	8.2892e-07	5.97795e-07	6.39997e-07	0.1336	0.0116726	0.134109	4.99322	18.5768	212.624	213.434	-85.0068	0.0000000E+000	0.0000000E+000	0.0000000E+000	85.0068	0.0000000E+000	0.0000000E+000	0.0000000E+000	-85.0068	0.0000000E+000	0.0000000E+000	0.0000000E+000	-4.99322	0.0000000E+000	0.0000000E+000	0.0000000E+000	4.99322	11.4457	85.0068	-5.7318e-06
63093.8	7.49687	0.575299	7.51891	-4.3882	1165.34	0.448458	-0.0102987	4.3847	0.0256695	1	38	0.00514233	0.00068392	0	-1.16125e-05	3.79258	1.80134	46.6317	0.000155295	4.93801e-05	4.98071e-05	3.80275e-05	5.51041e-05	5.81098e-05	0.442531	0.200408	5.62255	2.70745e-06	5.48455e-07	5.73719e-07	8.8559e-07	2.94877e-07	5.08837e-07	0.132608	0.0101762	0.132998	4.3882	25.6695	334.506	335.489	-85.6118	0.0000000E+000	0.0000000E+000	0.0000000E+000	85.6118	0.0000000E+000	0.0000000E+000	0.0000000E+000	-85.6118	0.0000000E+000	0.0000000E+000	0.0000000E+000	-4.3882	0.0000000E+000	0.0000000E+000	0.0000000E+000	4.3882	13.0312	85.6118	-3.04822e-06
39814.1	7.51502	0.534646	7.53401	-4.06937	1166.97	0.448463	-0.00941424	7.47683	0.0376528	1	38	0.00511726	0.000679221	0	-1.73368e-05	1.93706	0.957519	45.0365	3.20266e-05	2.59527e-05	7.28465e-05	2.28247e-05	3.01159e-05	2.46482e-05	0.312679	0.141686	5.67142	8.27598e-07	6.51574e-07	4.50744e-07	1.20381e-06	9.58796e-07	5.17827e-07	0.132397	0.00941919	0.132731	4.06937	37.6528	529.25	530.588	-85.9306	0.0000000E+000	0.0000000E+000	0.0000000E+000	85.9306	0.0000000E+000	0.0000000E+000	0.0000000E+000	-85.9306	0.0000000E+000	0.0000000E+000	0.0000000E+000	-4.06937	0.0000000E+000	0.0000000E+000	0.0000000E+000	4.06937	14.0561	85.9306	-1.83363e-06
25116.9	7.56485	0.78434	7.6054	-5.9194	1168.6	0.448478	-0.00873277	8.07885	0.0859239	1	38	0.0051882	0.000682172	0	-2.00358e-05	2.77354	1.30413	46.4026	6.9878e-05	5.49377e-05	3.69742e-05	5.55357e-05	5.48708e-05	1.93083e-05	0.321956	0.340293	5.54768	7.60249e-07	1.17883e-06	5.67637e-07	1.10271e-06	7.05713e-07	8.20359e-07	0.130784	0.01356	0.131485	5.9194	85.9239	828.724	833.166	-84.0806	0.0000000E+000	0.0000000E+000	0.0000000E+000	84.0806	0.0000000E+000	0.0000000E+000	0.0000000E+000	-84.0806	0.0000000E+000	0.0000000E+000	0.0000000E+000	-5.9194	0.0000000E+000	0.0000000E+000	0.0000000E+000	5.9194	9.64486	84.0806	-1.45554e-06
15847.7	7.61206	0.899156	7.66498	-6.73671	1170.23	0.448502	-0.00785393	11.1691	0.153698	1	38	0.00509854	0.000665173	0	-2.44981e-05	2.73308	0.99544	46.7605	4.62897e-05	4.58151e-05	6.74063e-05	3.56276e-05	4.57637e-05	7.81876e-05	0.317843	0.163223	5.5211	1.17914e-06	8.2109e-07	6.34479e-07	8.8398e-07	3.71262e-07	9.04569e-07	0.129563	0.0153043	0.130464	6.73671	153.698	1301.17	1310.22	-83.2633	0.0000000E+000	0.0000000E+000	0.0000000E+000	83.2633	0.0000000E+000	0.0000000E+000	0.0000000E+000	-83.2633	0.0000000E+000	0.0000000E+000	0.0000000E+000	-6.73671	0.0000000E+000	0.0000000E+000	0.0000000E+000	6.73671	8.46578	83.2633	-2.82433e-06
10002.2	7.70105	1.21211	7.79586	-8.94473	1171.86	0.448447	-0.0082617	13.1275	0.31735	1	38	0.00502445	0.000644503	0	-2.94712e-05	2.6578	1.05326	46.5564	2.53083e-05	3.15317e-05	5.21128e-05	8.96091e-05	5.33024e-05	2.2963e-05	0.226686	0.121811	5.96424	3.37977e-07	4.48731e-07	6.07719e-07	1.01389e-06	5.63383e-07	2.03881e-07	0.126713	0.0199441	0.128273	8.94473	317.35	2016.26	2041.08	-81.0553	0.0000000E+000	0.0000000E+000	0.0000000E+000	81.0553	0.0000000E+000	0.0000000E+000	0.0000000E+000	-81.0553	0.0000000E+000	0.0000000E+000	0.0000000E+000	-8.94473	0.0000000E+000	0.0000000E+000	0.0000000E+000	8.94473	6.35341	81.0553	-2.58516e-06
6307.74	7.80153	1.69921	7.98443	-12.2874	1173.61	0.448353	-0.00772918	14.8491	0.67252	1	38	0.00493254	0.00061777	0	-3.37859e-05	2.62791	1.69289	47.8811	4.77155e-05	5.53979e-05	4.87307e-05	4.47305e-05	5.08047e-05	5.3068e-05	0.350269	0.23334	6.17676	8.86641e-07	9.66896e-07	9.58018e-07	7.47343e-07	7.45338e-07	6.94073e-07	0.122375	0.0266538	0.125244	12.2874	672.52	3087.72	3160.11	-77.7126	0.0000000E+000	0.0000000E+000	0.0000000E+000	77.7126	0.0000000E+000	0.0000000E+000	0.0000000E+000	-77.7126	0.0000000E+000	0.0000000E+000	0.0000000E+000	-12.2874	0.0000000E+000	0.0000000E+000	0.0000000E+000	12.2874	4.59128	77.7126	-1.75323e-06
[...]
631.01	8.5481	13.8143	16.2451	-58.2512	1181.5	0.448366	-0.00368135	18.2581	13.2028	1	38	0.00480551	0.000295813	0	-4.99738e-05	2.68633	1.09295	48.8124	4.57909e-05	7.66186e-05	3.26922e-05	1.89573e-05	3.66e-05	7.12402e-05	0.960554	0.324584	12.8802	7.95569e-07	1.99614e-06	8.14976e-07	4.70431e-07	6.86582e-07	1.17406e-06	0.032391	0.0523458	0.061557	58.2512	13202.8	8169.74	15526.1	-31.7488	0.0000000E+000	0.0000000E+000	0.0000000E+000	31.7488	0.0000000E+000	0.0000000E+000	0.0000000E+000	-31.7488	0.0000000E+000	0.0000000E+000	0.0000000E+000	-58.2512	0.0000000E+000	0.0000000E+000	0.0000000E+000	58.2512	0.618789	31.7487	-6.78611e-07
398.089	9.06218	21.6258	23.4478	-67.2641	1182.98	0.44839	-0.00392899	18.4871	15.7257	1	38	0.00480569	0.000204953	0	-5.1444e-05	2.49943	1.60805	50.1955	6.3761e-05	2.12659e-05	3.21273e-05	3.65596e-05	4.99516e-05	6.40552e-05	1.13769	0.582361	18.5448	1.05695e-06	1.14436e-06	8.09226e-07	2.54516e-07	6.62587e-07	1.30281e-06	0.0164828	0.0393341	0.042648	67.2641	15725.7	6589.76	17050.6	-22.7359	0.0000000E+000	0.0000000E+000	0.0000000E+000	22.7359	0.0000000E+000	0.0000000E+000	0.0000000E+000	-22.7359	0.0000000E+000	0.0000000E+000	0.0000000E+000	-67.2641	0.0000000E+000	0.0000000E+000	0.0000000E+000	67.2641	0.419045	22.7359	-7.4637e-07
251.206	10.0137	33.8275	35.2785	-73.51	1184.72	0.448338	-6.84288e-05	18.7292	17.2202	1	39	0.0049093	0.000139158	0	-5.23294e-05	2.56774	1.75973	47.0263	4.52275e-05	2.76049e-05	7.66272e-05	4.09517e-05	4.80411e-05	4.76329e-05	0.893068	0.362461	13.9454	5.54962e-07	2.08653e-07	5.44972e-07	5.8499e-07	3.49613e-07	5.80821e-07	0.00804591	0.02718	0.0283458	73.51	17220.2	5097.6	17958.9	-16.49	0.0000000E+000	0.0000000E+000	0.0000000E+000	16.49	0.0000000E+000	0.0000000E+000	0.0000000E+000	-16.49	0.0000000E+000	0.0000000E+000	0.0000000E+000	-73.51	0.0000000E+000	0.0000000E+000	0.0000000E+000	73.51	0.296024	16.49	-1.92942e-07
158.529	10.7779	52.705	53.7958	-78.4427	1186.21	0.448378	-0.000593646	19.0484	18.2838	1	39	0.00482387	8.96702e-05	0	-5.24797e-05	2.28077	1.10219	45.9745	6.42491e-05	4.43404e-05	9.08921e-06	6.72246e-05	2.60113e-05	1.03285e-05	1.30243	0.737109	21.7393	6.71479e-07	5.20997e-07	2.30165e-07	6.61359e-07	2.03997e-07	1.46492e-07	0.00372424	0.0182119	0.0185888	78.4427	18283.8	3738.95	18662.2	-11.5573	0.0000000E+000	0.0000000E+000	0.0000000E+000	11.5573	0.0000000E+000	0.0000000E+000	0.0000000E+000	-11.5573	0.0000000E+000	0.0000000E+000	0.0000000E+000	-78.4427	0.0000000E+000	0.0000000E+000	0.0000000E+000	78.4427	0.204495	11.5573	2.51647e-08
99.9682	13.4274	81.3726	82.473	-80.6299	1187.69	0.448374	-0.000556185	19.565	19.0464	1	39	0.0047484	5.75752e-05	0	-5.26353e-05	3.16908	1.4993	47.4811	2.8101e-05	7.4933e-05	7.60034e-05	3.1388e-05	8.18113e-05	3.85709e-05	2.04637	0.516067	31.281	3.49129e-07	6.40088e-07	3.38137e-07	6.67529e-07	3.81543e-07	2.80946e-07	0.00197411	0.0119634	0.0121252	80.6299	19046.4	3142.89	19304	-9.37006	0.0000000E+000	0.0000000E+000	0.0000000E+000	9.37006	0.0000000E+000	0.0000000E+000	0.0000000E+000	-9.37006	0.0000000E+000	0.0000000E+000	0.0000000E+000	-80.6299	0.0000000E+000	0.0000000E+000	0.0000000E+000	80.6299	0.165012	9.37006	-4.35842e-08

File: 240313-CVEIS_Activation-0p5H2SO4-Ag_AgCl_BLF8-Au_RDE-80cycles_10_PEIS_C15.mpt
EC-Lab ASCII FILE
Nb header lines : 66

Potentio Electrochemical Impedance Spectroscopy

Run on channel : 15 (SN 19485)
User :
Electrode connection : standard
Potential control : Ewe
Ewe ctrl range : min = -2.50 V, max = 2.50 V
Ewe,I filtering : 50 kHz
Safety Limits :
	Do not start on E overload
Channel : Floating
Acquisition started on : 03/13/2024 15:25:11.595
Loaded Setting File :  C:\Data\mathias\GoldElectrode\240308-CVEIS_Activation-0p5H2SO4-Ag_AgCl_BLF8-Au_RDE-80cycles-C15.mps
Saved on :
	File : 240313-CVEIS_Activation-0p5H2SO4-Ag_AgCl_BLF8-Au_RDE-80cycles_10_PEIS_C15.mpr
	Directory : C:\Data\mathias\GoldElectrode\
	Host : 192.168.0.1
Device : VMP-300 (SN 0826)
Address : USB
EC-Lab for windows v11.52 (software)
Internet server v11.52 (firmware)
Command interpretor v11.52 (firmware)
Electrode material :
Initial state :
Electrolyte :
Comments :
Cable : special
Electrode surface area : 0.001 cm²
Characteristic mass : 0.001 g
Equivalent Weight : 0.000 g/eq.
Density : 0.000 g/cm3
Volume (V) : 0.001 cm³
Record EIS quality indicators
Cycle Definition : Charge/Discharge alternance
Mode                Single sine
E (V)               0.0000
vs.                 Eoc
tE (h:m:s)          0:00:0.0000
record              0
dI                  0.000
unit dI             mA
dt (s)              0.000
fi                  100.000
unit fi             kHz
ff                  100.000
unit ff             Hz
Nd                  10
Points              per decade
spacing             Logarithmic
Va (mV)             5.0
pw                  0.10
Na                  2
corr                0
E range min (V)     -2.500
E range max (V)     2.500
I Range             Auto
Bandwidth           8
nc cycles           0
goto Ns'            0
nr cycles           0
inc. cycle          0

freq/Hz	Re(Z)/Ohm	-Im(Z)/Ohm	|Z|/Ohm	Phase(Z)/deg	time/s	<Ewe>/V	<I>/mA	Cs/µF	Cp/µF	cycle number	I Range	|Ewe|/V	|I|/A	Ns	(Q-Qo)/mA.h	THD Ewe/%	NSD Ewe/%	NSR Ewe/%	|Ewe h2|/V	|Ewe h3|/V	|Ewe h4|/V	|Ewe h5|/V	|Ewe h6|/V	|Ewe h7|/V	THD I/%	NSD I/%	NSR I/%	|I h2|/A	|I h3|/A	|I h4|/A	|I h5|/A	|I h6|/A	|I h7|/A	Re(Y)/Ohm-1	Im(Y)/Ohm-1	|Y|/Ohm-1	Phase(Y)/deg	Re(C)/nF	Im(C)/nF	|C|/nF	Phase(C)/deg	Re(M)	Im(M)	|M|	Phase(M)/deg	Re(Permittivity)	Im(Permittivity)	|Permittivity|	Phase(Permittivity)/deg	Re(Resistivity)/Ohm.cm	Im(Resistivity)/Ohm.cm	|Resistivity|/Ohm.cm	Phase(Resistivity)/deg	Re(Conductivity)/mS/cm	Im(Conductivity)/mS/cm	|Conductivity|/mS/cm	Phase(Conductivity)/deg	Tan(Delta)	Loss Angle(Delta)/deg	dq/mA.h
100004	7.49876	0.596646	7.52246	-4.54921	1550.66	0.448483	-0.0186737	2.66739	0.0167804	1	38	0.00489981	0.000651358	0	-4.48133e-06	2.2838	1.3247	47.3647	3.07442e-05	3.85185e-05	3.6749e-05	1.72109e-05	8.41026e-05	3.15631e-05	0.370196	0.161133	5.83768	5.94543e-07	1.02252e-06	7.78785e-07	1.25727e-06	8.43329e-07	1.09733e-06	0.132516	0.0105438	0.132935	4.54921	16.7804	210.899	211.565	-85.4508	0.0000000E+000	0.0000000E+000	0.0000000E+000	85.4508	0.0000000E+000	0.0000000E+000	0.0000000E+000	-85.4508	0.0000000E+000	0.0000000E+000	0.0000000E+000	-4.54921	0.0000000E+000	0.0000000E+000	0.0000000E+000	4.54921	12.5682	85.4508	-4.48133e-06
63093.8	7.49874	0.515235	7.51642	-3.93059	1552.29	0.448444	-0.00887427	4.89585	0.0230047	1	38	0.00520279	0.00069219	0	-8.56396e-06	1.99315	1.65387	43.8756	3.71968e-05	5.09114e-05	3.85015e-05	2.55544e-05	3.50128e-05	4.8002e-05	0.246588	0.11879	5.39701	4.90606e-07	9.50486e-07	3.58338e-07	6.70414e-07	7.57102e-07	4.7418e-07	0.132729	0.00911976	0.133042	3.93059	23.0047	334.811	335.6	-86.0694	0.0000000E+000	0.0000000E+000	0.0000000E+000	86.0694	0.0000000E+000	0.0000000E+000	0.0000000E+000	-86.0694	0.0000000E+000	0.0000000E+000	0.0000000E+000	-3.93059	0.0000000E+000	0.0000000E+000	0.0000000E+000	3.93059	14.554	86.0694	-2.46256e-06
39814.1	7.49826	0.489523	7.51422	-3.73525	1553.92	0.448468	-0.00908653	8.16602	0.0346568	1	38	0.00513165	0.000682925	0	-1.39503e-05	1.63964	0.777591	46.684	2.69423e-05	4.1961e-05	2.19818e-05	4.80713e-05	1.93579e-05	3.12336e-05	0.297935	0.208609	5.5406	1.11867e-06	9.01612e-07	5.03143e-07	8.15065e-07	9.59151e-07	4.05228e-07	0.132798	0.00866972	0.133081	3.73525	34.6568	530.855	531.985	-86.2648	0.0000000E+000	0.0000000E+000	0.0000000E+000	86.2648	0.0000000E+000	0.0000000E+000	0.0000000E+000	-86.2648	0.0000000E+000	0.0000000E+000	0.0000000E+000	-3.73525	0.0000000E+000	0.0000000E+000	0.0000000E+000	3.73525	15.3175	86.2648	-2.88379e-06
25116.9	7.53221	0.584703	7.55487	-4.4388	1555.55	0.448455	-0.00857078	10.8372	0.0649135	1	38	0.00512071	0.000677802	0	-1.7054e-05	2.4224	1.51044	45.5982	6.13274e-05	7.26496e-05	4.10625e-05	2.97915e-05	3.44912e-05	4.17231e-05	0.251199	0.244212	5.5204	7.07258e-07	1.05094e-06	4.79336e-07	6.02135e-07	5.92691e-07	3.16591e-07	0.131968	0.0102443	0.132365	4.4388	64.9135	836.223	838.739	-85.5612	0.0000000E+000	0.0000000E+000	0.0000000E+000	85.5612	0.0000000E+000	0.0000000E+000	0.0000000E+000	-85.5612	0.0000000E+000	0.0000000E+000	0.0000000E+000	-4.4388	0.0000000E+000	0.0000000E+000	0.0000000E+000	4.4388	12.8821	85.5612	-1.13145e-06
15847.7	7.66493	0.796361	7.70619	-5.93156	1557.18	0.448457	-0.00754113	12.6109	0.134674	1	38	0.0051223	0.000664699	0	-1.84165e-05	2.6768	1.73119	46.3486	4.12389e-05	5.14142e-05	1.65791e-05	9.57612e-05	2.27688e-05	6.53332e-05	0.307957	0.108667	5.71148	7.11585e-07	4.34465e-07	7.44258e-07	8.83035e-07	5.50077e-07	1.22456e-06	0.129071	0.0134101	0.129766	5.93156	134.675	1296.23	1303.21	-84.0684	0.0000000E+000	0.0000000E+000	0.0000000E+000	84.0684	0.0000000E+000	0.0000000E+000	0.0000000E+000	-84.0684	0.0000000E+000	0.0000000E+000	0.0000000E+000	-5.93156	0.0000000E+000	0.0000000E+000	0.0000000E+000	5.93156	9.62494	84.0684	-4.93369e-07
10002.2	7.67896	1.14363	7.76365	-8.47082	1558.81	0.448459	-0.00809785	13.9135	0.30191	1	38	0.00500283	0.000644391	0	-2.26752e-05	2.18427	1.14482	46.8021	4.98632e-05	5.24398e-05	3.38343e-05	3.55455e-05	2.69417e-05	4.64377e-05	0.324197	0.150187	5.73518	6.5762e-07	7.64482e-07	9.28247e-07	4.93117e-07	6.7442e-07	1.11501e-06	0.1274	0.0189738	0.128805	8.47082	301.909	2027.19	2049.54	-81.5292	0.0000000E+000	0.0000000E+000	0.0000000E+000	81.5292	0.0000000E+000	0.0000000E+000	0.0000000E+000	-81.5292	0.0000000E+000	0.0000000E+000	0.0000000E+000	-8.47082	0.0000000E+000	0.0000000E+000	0.0000000E+000	8.47082	6.71455	81.5292	-3.14833e-06
6307.74	7.84398	1.57833	8.00119	-11.3769	1560.55	0.448339	-0.00735866	15.9863	0.622063	1	38	0.00520238	0.000650201	0	-2.57965e-05	2.74008	1.64288	45.033	5.30653e-05	0.000106058	3.98433e-05	3.66469e-05	2.53739e-05	3.74086e-05	0.368024	0.11094	6.02861	4.44561e-07	1.67026e-06	1.19035e-06	6.99255e-07	4.53559e-07	7.45596e-07	0.122526	0.024654	0.124981	11.3769	622.063	3091.53	3153.49	-78.6231	0.0000000E+000	0.0000000E+000	0.0000000E+000	78.6231	0.0000000E+000	0.0000000E+000	0.0000000E+000	-78.6231	0.0000000E+000	0.0000000E+000	0.0000000E+000	-11.3769	0.0000000E+000	0.0000000E+000	0.0000000E+000	11.3769	4.9698	78.6231	-1.40957e-06
[...]
631.01	8.46059	12.7923	15.337	-56.52	1568.44	0.448362	-0.00523234	19.7168	13.7167	1	38	0.00496776	0.000323907	0	-4.07517e-05	3.07932	1.44952	48.4602	3.34953e-05	0.000116933	1.76261e-05	4.1676e-05	6.8273e-05	3.56847e-05	0.808521	0.442612	12.2578	6.53886e-07	2.24938e-06	6.12903e-07	4.98223e-07	6.73633e-07	3.62874e-07	0.0359683	0.0543834	0.0652018	56.52	13716.7	9072.02	16445.4	-33.48	0.0000000E+000	0.0000000E+000	0.0000000E+000	33.48	0.0000000E+000	0.0000000E+000	0.0000000E+000	-33.48	0.0000000E+000	0.0000000E+000	0.0000000E+000	-56.52	0.0000000E+000	0.0000000E+000	0.0000000E+000	56.52	0.661384	33.48	-6.83017e-07
398.089	8.94639	20.1294	22.028	-66.0376	1569.93	0.448326	-0.00482644	19.8613	16.5852	1	38	0.00496448	0.000225371	0	-4.23976e-05	2.29183	1.07766	47.1842	2.1461e-05	8.03383e-05	2.58517e-05	4.64803e-05	3.44946e-05	3.65361e-05	0.833637	0.442712	16.9897	8.42719e-07	6.52875e-07	7.63657e-07	5.95003e-07	9.15407e-07	4.86152e-07	0.0184373	0.0414841	0.0453968	66.0376	16585.2	7371.19	18149.5	-23.9624	0.0000000E+000	0.0000000E+000	0.0000000E+000	23.9624	0.0000000E+000	0.0000000E+000	0.0000000E+000	-23.9624	0.0000000E+000	0.0000000E+000	0.0000000E+000	-66.0376	0.0000000E+000	0.0000000E+000	0.0000000E+000	66.0376	0.444443	23.9624	-8.38158e-07
251.206	9.38089	31.4703	32.8387	-73.4014	1571.67	0.448351	-0.000507911	20.1321	18.4892	1	39	0.0050597	0.000154077	0	-4.33664e-05	2.05849	1.10501	44.018	4.31468e-05	5.34565e-05	4.65462e-05	3.72633e-05	1.7532e-05	3.80835e-05	0.879259	0.411433	12.4554	5.02921e-07	8.60957e-07	2.75844e-07	6.76617e-07	4.19326e-07	2.86581e-07	0.00869905	0.0291829	0.0304519	73.4014	18489.2	5511.4	19293.2	-16.5986	0.0000000E+000	0.0000000E+000	0.0000000E+000	16.5986	0.0000000E+000	0.0000000E+000	0.0000000E+000	-16.5986	0.0000000E+000	0.0000000E+000	0.0000000E+000	-73.4014	0.0000000E+000	0.0000000E+000	0.0000000E+000	73.4014	0.298087	16.5986	-1.25924e-07
158.529	10.8889	49.0381	50.2325	-77.4806	1573.16	0.448373	4.26527e-05	20.4728	19.5108	1	39	0.00495847	9.87104e-05	0	-4.32827e-05	1.74642	1.32668	46.4698	3.18855e-05	2.71583e-05	4.3027e-05	2.64897e-05	3.2608e-05	3.43456e-05	1.01148	0.683429	19.8298	3.87015e-07	3.11069e-07	6.09718e-07	4.1086e-07	3.65208e-07	2.18579e-07	0.00431535	0.0194341	0.0199074	77.4806	19510.8	4332.39	19986.1	-12.5194	0.0000000E+000	0.0000000E+000	0.0000000E+000	12.5194	0.0000000E+000	0.0000000E+000	0.0000000E+000	-12.5194	0.0000000E+000	0.0000000E+000	0.0000000E+000	-77.4806	0.0000000E+000	0.0000000E+000	0.0000000E+000	77.4806	0.222051	12.5194	-5.09974e-09
99.9682	12.4398	77.531	78.5226	-80.8847	1574.63	0.44836	-0.000474737	20.5345	20.0191	1	39	0.00495875	6.31506e-05	0	-4.35686e-05	2.53094	2.00372	44.7568	2.53868e-05	3.09021e-05	4.70071e-05	2.42612e-05	9.57069e-05	3.82762e-05	1.65804	1.3239	29.6752	3.5133e-07	2.94065e-07	3.98157e-07	5.01167e-07	5.27717e-07	3.12442e-07	0.00201754	0.0125744	0.0127352	80.8847	20019.1	3212.04	20275.1	-9.11535	0.0000000E+000	0.0000000E+000	0.0000000E+000	9.11535	0.0000000E+000	0.0000000E+000	0.0000000E+000	-9.11535	0.0000000E+000	0.0000000E+000	0.0000000E+000	-80.8847	0.0000000E+000	0.0000000E+000	0.0000000E+000	80.8847	0.160449	9.11536	-1.38953e-07