Folder: Thesis/Python/Data/GoldElectrode/240308 (part 5)

File: 240308-EIS_Activation-0p5H2SO4-Ag_AgCl_BLF8-Au_RDE-Initial-C15_C15.mpt
EC-Lab ASCII FILE
Nb header lines : 66

Potentio Electrochemical Impedance Spectroscopy

Run on channel : 15 (SN 19485)
User :
Electrode connection : standard
Potential control : Ewe
Ewe ctrl range : min = -2.50 V, max = 2.50 V
Ewe,I filtering : 50 kHz
Safety Limits :
	Do not start on E overload
Channel : Floating
Acquisition started on : 03/08/2024 16:23:07.826
Loaded Setting File :  NONE
Saved on :
	File : 240308-EIS_Activation-0p5H2SO4-Ag_AgCl_BLF8-Au_RDE-Initial-C15_C15.mpr
	Directory : C:\Data\mathias\GoldElectrode\
	Host : 192.168.0.1
Device : VMP-300 (SN 0826)
Address : USB
EC-Lab for windows v11.52 (software)
Internet server v11.52 (firmware)
Command interpretor v11.52 (firmware)
Electrode material :
Initial state :
Electrolyte :
Comments :
Cable : special
Electrode surface area : 0.001 cm²
Characteristic mass : 0.001 g
Equivalent Weight : 0.000 g/eq.
Density : 0.000 g/cm3
Volume (V) : 0.001 cm³
Record EIS quality indicators
Cycle Definition : Charge/Discharge alternance
Mode                Single sine
E (V)               0.0000
vs.                 Eoc
tE (h:m:s)          0:00:0.0000
record              0
dI                  0.000
unit dI             mA
dt (s)              0.000
fi                  100.000
unit fi             kHz
ff                  100.000
unit ff             Hz
Nd                  10
Points              per decade
spacing             Logarithmic
Va (mV)             5.0
pw                  0.10
Na                  2
corr                0
E range min (V)     -2.500
E range max (V)     2.500
I Range             Auto
Bandwidth           8
nc cycles           1
goto Ns'            0
nr cycles           0
inc. cycle          0

freq/Hz	Re(Z)/Ohm	-Im(Z)/Ohm	|Z|/Ohm	Phase(Z)/deg	time/s	<Ewe>/V	<I>/mA	Cs/µF	Cp/µF	cycle number	I Range	|Ewe|/V	|I|/A	Ns	(Q-Qo)/mA.h	THD Ewe/%	NSD Ewe/%	NSR Ewe/%	|Ewe h2|/V	|Ewe h3|/V	|Ewe h4|/V	|Ewe h5|/V	|Ewe h6|/V	|Ewe h7|/V	THD I/%	NSD I/%	NSR I/%	|I h2|/A	|I h3|/A	|I h4|/A	|I h5|/A	|I h6|/A	|I h7|/A	Re(Y)/Ohm-1	Im(Y)/Ohm-1	|Y|/Ohm-1	Phase(Y)/deg	Re(C)/nF	Im(C)/nF	|C|/nF	Phase(C)/deg	Re(M)	Im(M)	|M|	Phase(M)/deg	Re(Permittivity)	Im(Permittivity)	|Permittivity|	Phase(Permittivity)/deg	Re(Resistivity)/Ohm.cm	Im(Resistivity)/Ohm.cm	|Resistivity|/Ohm.cm	Phase(Resistivity)/deg	Re(Conductivity)/mS/cm	Im(Conductivity)/mS/cm	|Conductivity|/mS/cm	Phase(Conductivity)/deg	Tan(Delta)	Loss Angle(Delta)/deg	dq/mA.h
100004	6.19087	0.801378	6.24252	-7.37565	2.9075	0.404235	-0.00386013	1.98594	0.0327282	1	38	0.00480435	0.000769618	0	-1.2004e-06	1.84084	0.752659	32.916	3.14253e-05	4.25688e-05	1.82643e-05	1.78452e-05	3.32862e-05	3.40297e-05	0.198597	0.16833	4.06999	4.77672e-07	5.91443e-07	5.16854e-07	6.59906e-07	8.44829e-07	3.93572e-07	0.158866	0.0205645	0.160192	7.37565	32.7282	252.834	254.944	-82.6244	0.0000000E+000	0.0000000E+000	0.0000000E+000	82.6244	0.0000000E+000	0.0000000E+000	0.0000000E+000	-82.6244	0.0000000E+000	0.0000000E+000	0.0000000E+000	-7.37565	0.0000000E+000	0.0000000E+000	0.0000000E+000	7.37565	7.72528	82.6244	-1.2004e-06
39814.1	6.3405	1.19014	6.45123	-10.6309	6.1645	0.404236	0.00378316	3.35882	0.114313	1	38	0.00516587	0.000800756	0	1.15755e-06	2.11787	0.762032	30.3697	4.86479e-05	3.38043e-05	3.94895e-05	5.71369e-05	3.5622e-05	2.77824e-05	0.254242	0.138826	3.88773	1.14278e-06	7.63189e-07	7.81602e-07	6.77697e-07	4.50183e-07	7.72942e-07	0.152349	0.0285964	0.155009	10.6309	114.313	609.007	619.642	-79.3691	0.0000000E+000	0.0000000E+000	0.0000000E+000	79.3691	0.0000000E+000	0.0000000E+000	0.0000000E+000	-79.3691	0.0000000E+000	0.0000000E+000	0.0000000E+000	-10.6309	0.0000000E+000	0.0000000E+000	0.0000000E+000	10.6309	5.32755	79.3691	1.60624e-07
15847.7	6.6943	2.40481	7.11314	-19.7599	9.42049	0.404243	0.00402335	4.17613	0.477323	1	38	0.0051378	0.000722298	0	1.73998e-06	1.21596	0.736156	31.23	2.463e-05	1.88217e-05	2.27292e-05	2.07242e-05	3.73687e-05	2.23339e-05	0.259291	0.213798	4.36131	3.73213e-07	4.02182e-07	6.21958e-07	6.35231e-07	1.39857e-06	5.36881e-07	0.132307	0.047529	0.140585	19.7599	477.323	1328.73	1411.87	-70.2401	0.0000000E+000	0.0000000E+000	0.0000000E+000	70.2401	0.0000000E+000	0.0000000E+000	0.0000000E+000	-70.2401	0.0000000E+000	0.0000000E+000	0.0000000E+000	-19.7599	0.0000000E+000	0.0000000E+000	0.0000000E+000	19.7599	2.78371	70.2401	5.13006e-07
6307.74	7.9181	5.04736	9.39	-32.5153	12.7966	0.404083	0.00218376	4.99899	1.44437	1	38	0.00509643	0.000542751	0	4.27896e-06	1.35122	1.69111	31.8721	1.36605e-05	2.29729e-05	3.36612e-05	2.29868e-05	4.15201e-05	1.59205e-05	0.370716	0.264472	5.89775	1.05457e-06	5.67463e-07	5.63255e-07	1.04733e-06	6.74979e-07	6.24882e-07	0.0898027	0.0572444	0.106496	32.5153	1444.37	2265.88	2687.08	-57.4847	0.0000000E+000	0.0000000E+000	0.0000000E+000	57.4847	0.0000000E+000	0.0000000E+000	0.0000000E+000	-57.4847	0.0000000E+000	0.0000000E+000	0.0000000E+000	-32.5153	0.0000000E+000	0.0000000E+000	0.0000000E+000	32.5153	1.56876	57.4847	2.91819e-07
2512.41	10.7813	9.11036	14.1151	-40.1982	15.7816	0.404065	0.00245001	6.95335	2.89666	1	38	0.00510704	0.000361815	0	6.16426e-06	1.89573	1.29858	31.7267	3.08952e-05	3.44554e-05	5.57115e-05	3.93818e-05	3.18498e-05	2.33621e-05	0.507436	0.242121	8.73394	4.6385e-07	1.1233e-06	7.59624e-07	6.74309e-07	7.27163e-07	4.33864e-07	0.0541134	0.0457266	0.0708462	40.1982	2896.66	3427.95	4487.93	-49.8018	0.0000000E+000	0.0000000E+000	0.0000000E+000	49.8018	0.0000000E+000	0.0000000E+000	0.0000000E+000	-49.8018	0.0000000E+000	0.0000000E+000	0.0000000E+000	-40.1982	0.0000000E+000	0.0000000E+000	0.0000000E+000	40.1982	1.18341	49.8018	7.40499e-07
999.682	14.9884	15.6272	21.6532	-46.1953	18.7548	0.40409	0.00201245	10.1877	5.30633	1	38	0.00497359	0.000229693	0	7.66922e-06	1.87624	0.659194	29.9807	2.75198e-05	4.43325e-05	4.52268e-05	1.99041e-05	3.78414e-05	2.96906e-05	1.00156	0.394002	13.7202	1.45249e-06	7.3747e-07	6.99395e-07	9.07632e-07	9.04961e-07	5.61184e-07	0.0319676	0.03333	0.0461825	46.1953	5306.33	5089.43	7352.51	-43.8047	0.0000000E+000	0.0000000E+000	0.0000000E+000	43.8047	0.0000000E+000	0.0000000E+000	0.0000000E+000	-43.8047	0.0000000E+000	0.0000000E+000	0.0000000E+000	-46.1953	0.0000000E+000	0.0000000E+000	0.0000000E+000	46.1953	0.959124	43.8047	4.30759e-07
398.089	19.3404	30.0532	35.7386	-57.2371	21.9827	0.404109	0.000249534	13.303	9.40711	1	39	0.00507783	0.000142083	0	9.73583e-06	1.41619	0.96836	31.4125	4.22948e-05	3.41144e-05	1.93048e-05	2.37773e-05	2.30465e-05	2.2552e-05	0.696465	0.182574	10.1736	7.69497e-07	3.40543e-07	2.38735e-07	2.93461e-07	1.52036e-07	2.29616e-07	0.0151423	0.0235297	0.027981	57.2371	9407.11	6053.85	11186.7	-32.7629	0.0000000E+000	0.0000000E+000	0.0000000E+000	32.7629	0.0000000E+000	0.0000000E+000	0.0000000E+000	-32.7629	0.0000000E+000	0.0000000E+000	0.0000000E+000	-57.2371	0.0000000E+000	0.0000000E+000	0.0000000E+000	57.2371	0.64354	32.7629	6.64673e-08
[...]
1995.64	11.6723	10.6587	15.8066	-42.401	41.4947	0.404117	-0.000234905	7.48231	3.40222	2	38	0.00505072	0.000319531	0	8.4495e-06	1.44044	2.13386	30.9937	3.01485e-05	2.27057e-05	1.09288e-05	4.06317e-05	4.02441e-05	2.07736e-05	0.610589	0.8924	9.82704	1.09617e-06	8.51775e-07	4.46189e-07	9.13377e-07	5.93645e-07	5.19676e-07	0.0467173	0.0426603	0.0632645	42.401	3402.22	3725.77	5045.44	-47.599	0.0000000E+000	0.0000000E+000	0.0000000E+000	47.599	0.0000000E+000	0.0000000E+000	0.0000000E+000	-47.599	0.0000000E+000	0.0000000E+000	0.0000000E+000	-42.401	0.0000000E+000	0.0000000E+000	0.0000000E+000	42.401	1.0951	47.599	2.64794e-07
794.239	16.2714	18.0787	24.3227	-48.0118	44.4689	0.404113	-4.4992e-05	11.0841	6.12365	2	38	0.00496802	0.000204254	0	8.21822e-06	2.02401	1.44713	31.8768	7.401e-05	3.30905e-05	2.45904e-05	1.61719e-05	3.96646e-05	1.58935e-05	0.887066	1.24286	15.2382	7.67173e-07	9.82513e-07	5.92174e-07	3.85436e-07	6.87792e-07	7.10863e-07	0.0275042	0.0305592	0.0411138	48.0118	6123.65	5511.47	8238.65	-41.9882	0.0000000E+000	0.0000000E+000	0.0000000E+000	41.9882	0.0000000E+000	0.0000000E+000	0.0000000E+000	-41.9882	0.0000000E+000	0.0000000E+000	0.0000000E+000	-48.0118	0.0000000E+000	0.0000000E+000	0.0000000E+000	48.0118	0.90003	41.9882	-1.28025e-07
316.316	21.1933	36.1498	41.9042	-59.6185	47.6939	0.40411	0.000312157	13.9185	10.3583	2	39	0.00505242	0.000120571	0	9.26279e-06	1.22593	0.678981	28.8667	2.14851e-05	4.31467e-05	2.40679e-05	1.24865e-05	1.27311e-05	1.81906e-05	0.710918	0.173607	11.7051	5.03389e-07	4.19358e-07	1.71523e-07	4.00976e-07	1.16117e-07	2.95235e-07	0.0120693	0.0205869	0.0238639	59.6185	10358.3	6072.71	12007.2	-30.3815	0.0000000E+000	0.0000000E+000	0.0000000E+000	30.3815	0.0000000E+000	0.0000000E+000	0.0000000E+000	-30.3815	0.0000000E+000	0.0000000E+000	0.0000000E+000	-59.6185	0.0000000E+000	0.0000000E+000	0.0000000E+000	59.6185	0.586264	30.3815	3.58928e-08
125.927	28.4373	78.4809	83.4741	-70.0822	50.6703	0.404134	0.000182995	16.1042	14.2352	2	39	0.00494084	5.919e-05	0	9.33296e-06	1.25645	0.34909	30.4624	3.22827e-05	5.83815e-06	2.28282e-05	6.73458e-06	2.70117e-05	2.15141e-05	1.12951	0.73133	23.9797	4.4141e-07	1.85127e-07	2.36145e-07	1.66369e-07	1.63225e-07	2.43433e-07	0.00408117	0.0112632	0.0119798	70.0822	14235.2	5158.07	15140.9	-19.9178	0.0000000E+000	0.0000000E+000	0.0000000E+000	19.9178	0.0000000E+000	0.0000000E+000	0.0000000E+000	-19.9178	0.0000000E+000	0.0000000E+000	0.0000000E+000	-70.0822	0.0000000E+000	0.0000000E+000	0.0000000E+000	70.0822	0.362347	19.9178	9.12192e-08
99.9682	31.2727	95.6538	100.636	-71.8955	51.4018	0.404129	0.000273761	16.644	15.0367	2	39	0.0049139	4.88284e-05	0	9.34254e-06	1.49761	0.553771	28.8119	1.91718e-05	1.8464e-05	3.68837e-05	2.64786e-05	2.54656e-05	3.33792e-05	1.85249	0.496863	27.6004	4.88434e-07	3.1791e-07	4.93492e-07	2.01009e-07	1.16891e-07	3.54753e-07	0.00308786	0.00944484	0.00993679	71.8955	15036.7	4916.05	15819.9	-18.1045	0.0000000E+000	0.0000000E+000	0.0000000E+000	18.1045	0.0000000E+000	0.0000000E+000	0.0000000E+000	-18.1045	0.0000000E+000	0.0000000E+000	0.0000000E+000	-71.8955	0.0000000E+000	0.0000000E+000	0.0000000E+000	71.8955	0.326937	18.1045	9.58345e-09