Folder: Thesis/Python/Data/GoldElectrode/240313 (part 4)

File: 240313-CVEIS_PostActivation-Fe2Fe3_5mM-HCl1M-0000RPM-Ag_AgCl_BLF8-Au_RDE_01_CV_C15.mpt
EC-Lab ASCII FILE
Nb header lines : 60

Cyclic Voltammetry

Run on channel : 15 (SN 19485)
User :
Electrode connection : standard
Potential control : Ewe
Ewe ctrl range : min = -1.00 V, max = 1.00 V
Ewe,I filtering : <None>
Safety Limits :
	Do not start on E overload
Channel : Floating
Acquisition started on : 03/13/2024 16:38:30.802
Loaded Setting File :  C:\Data\mathias\GoldElectrode\240308-CVEIS_PostActivation-Fe2Fe3_5mM-HCl1M-0RPM-Ag_AgCl_BLF8-Au_RDE-C15.mps
Saved on :
	File : 240313-CVEIS_PostActivation-Fe2Fe3_5mM-HCl1M-0RPM-Ag_AgCl_BLF8-Au_RDE_01_CV_C15.mpr
	Directory : C:\Data\mathias\GoldElectrode\
	Host : 192.168.0.1
Device : VMP-300 (SN 0826)
Address : USB
EC-Lab for windows v11.52 (software)
Internet server v11.52 (firmware)
Command interpretor v11.52 (firmware)
Electrode material :
Initial state :
Electrolyte :
Comments :
Cable : special
Electrode surface area : 0.001 cm²
Characteristic mass : 0.001 g
Equivalent Weight : 0.000 g/eq.
Density : 0.000 g/cm3
Volume (V) : 0.001 cm³
Record EIS quality indicators
Cycle Definition : Charge/Discharge alternance
Ei (V)              0.000
vs.                 Eoc
dE/dt               20.000
dE/dt unit          mV/s
E1 (V)              0.700
vs.                 Ref
Step percent        50
N                   10
E range min (V)     -1.000
E range max (V)     1.000
I Range             Auto
I Range min         Unset
I Range max         Unset
I Range init        Unset
Bandwidth           8
E2 (V)              0.000
vs.                 Ref
nc cycles           1
Reverse Scan        1
Ef (V)              0.000
vs.                 Eoc

mode	ox/red	error	control changes	counter inc.	time/s	control/V	Ewe/V	<I>/mA	cycle number	(Q-Qo)/C	I Range	step time/s	P/W
2	1	0	0	0	0.000000000000000E+000	0.454032	0.453635	0.0225157	1	0.0000000E+000	41	0.000000000000000E+000	1.02139e-05
2	1	0	1	0	1.1632	0.477296	0.476882	0.102188	1	8.20726e-05	41	1.1494	4.87316e-05
2	1	0	1	0	2.3677	0.501384	0.500954	0.123003	1	0.000222334	40	2.3539	6.1619e-05
2	1	0	1	0	3.5421	0.524873	0.524652	0.115668	1	0.000364986	40	3.5283	6.06852e-05
2	1	0	1	0	4.7166	0.548363	0.548194	0.100046	1	0.000492859	40	4.7028	5.48444e-05
2	1	0	1	0	5.891	0.571851	0.571585	0.0862057	1	0.000603169	40	5.8772	4.92739e-05
2	1	0	1	0	7.0654	0.59534	0.59496	0.0755497	1	0.00069908	40	7.0516	4.49491e-05
2	1	0	1	0	8.2399	0.618828	0.618536	0.0681486	1	0.000784371	40	8.2261	4.21524e-05
2	1	0	1	0	9.4143	0.642317	0.641876	0.0631745	1	0.000862116	40	9.4005	4.05502e-05
2	1	0	1	0	10.5888	0.665806	0.665612	0.0601168	1	0.000934896	40	10.575	4.00145e-05
2	1	0	1	0	11.7632	0.689295	0.688972	0.0597749	1	0.00100541	40	11.7494	4.11833e-05
2	1	0	1	0	12.9132	0.687746	0.687275	0.0514873	1	0.00107129	40	12.8994	3.53859e-05
2	1	0	1	0	14.0876	0.664257	0.663969	0.0464412	1	0.0011279	40	14.0738	3.08355e-05
2	1	0	1	0	15.292	0.640168	0.639789	0.0435264	1	0.00118174	41	15.2782	2.78477e-05
2	1	0	1	0	16.4665	0.616679	0.616302	0.0413965	1	0.00123159	41	16.4527	2.55127e-05
2	1	0	1	0	17.6409	0.593191	0.592917	0.0386469	1	0.00127865	41	17.6271	2.29144e-05
2	1	0	1	0	18.8154	0.569702	0.569312	0.0341208	1	0.0013216	41	18.8016	1.94254e-05
2	1	0	1	0	19.9898	0.546213	0.545847	0.0252013	1	0.00135701	41	19.976	1.37561e-05
2	1	0	1	0	21.1642	0.522724	0.522408	0.00702799	1	0.00137714	41	21.1504	3.67148e-06
2	0	0	1	0	22.3986	0.498037	0.497893	-0.0294624	1	0.00136548	41	0.9045	-1.46691e-05
2	0	0	1	0	23.5731	0.474547	0.474127	-0.0812851	1	0.00130152	41	2.079	-3.85394e-05
2	0	0	1	0	24.7775	0.450458	0.45028	-0.131492	1	0.00117125	40	3.2834	-5.92084e-05
2	0	0	1	0	25.952	0.42697	0.426688	-0.151984	1	0.00100072	40	4.4579	-6.48499e-05
2	0	0	1	0	27.1264	0.403481	0.403222	-0.143847	1	0.000824257	40	5.6323	-5.80022e-05
2	0	0	1	0	28.3008	0.379992	0.379616	-0.12424	1	0.00066581	40	6.8067	-4.71637e-05
2	0	0	1	0	29.4753	0.356503	0.356245	-0.105362	1	0.000530486	40	7.9812	-3.75348e-05
2	0	0	1	0	30.6497	0.333014	0.332794	-0.0906774	1	0.000414959	40	9.1556	-3.01769e-05
2	0	0	1	0	31.8242	0.309525	0.309231	-0.0795117	1	0.000314536	40	10.3301	-2.45875e-05
2	0	0	1	0	32.9986	0.286037	0.285743	-0.0710173	1	0.000225495	40	11.5045	-2.02927e-05
2	0	0	1	0	34.1731	0.262548	0.262243	-0.0644833	1	0.000145141	40	12.679	-1.69103e-05
2	0	0	1	0	35.3475	0.239059	0.238956	-0.0590699	1	7.16341e-05	40	13.8534	-1.41151e-05
2	0	0	1	0	36.5219	0.21557	0.215195	-0.0546528	1	3.6537e-06	40	15.0278	-1.1761e-05
2	0	0	1	0	37.6964	0.192081	0.191867	-0.0510843	1	-5.97497e-05	40	16.2023	-9.80141e-06
2	0	0	1	0	38.8708	0.168592	0.168221	-0.0477891	1	-0.000119332	40	17.3767	-8.0391e-06
2	0	0	1	0	40.0453	0.145104	0.14478	-0.0451265	1	-0.000175648	40	18.5512	-6.53342e-06
2	0	0	1	0	41.2497	0.121015	0.120667	-0.0444073	1	-0.00023047	41	19.7556	-5.35851e-06
2	0	0	1	0	42.4241	0.0975262	0.0973989	-0.0424862	1	-0.000281476	41	20.93	-4.13811e-06
2	0	0	1	0	43.5986	0.0740373	0.0737335	-0.0407573	1	-0.000330329	41	22.1045	-3.00518e-06
2	0	0	1	0	44.773	0.0505485	0.0503119	-0.0392129	1	-0.000377275	41	23.2789	-1.97287e-06
2	0	0	1	0	45.9475	0.0270597	0.0265771	-0.0378487	1	-0.000422555	41	24.4534	-1.00591e-06
2	0	0	1	0	47.1219	0.00357082	0.00324633	-0.0367134	1	-0.000466359	41	25.6278	-1.19184e-07
2	0	0	1	1	48.2642	0.0192634	0.0189171	-0.0344852	1	-0.000506618	41	26.7701	-6.52361e-07
2	0	0	1	1	49.4387	0.0427522	0.0423706	-0.0334432	1	-0.000546466	41	27.9446	-1.41701e-06
2	0	0	1	1	50.6131	0.066241	0.0661102	-0.0324872	1	-0.000585156	41	29.119	-2.14773e-06
2	0	0	1	1	51.7875	0.0897299	0.0897075	-0.0316754	1	-0.0006228	41	30.2934	-2.84152e-06
2	0	0	1	1	52.962	0.113219	0.112822	-0.0309503	1	-0.000659544	41	31.4679	-3.49189e-06
2	0	0	1	1	54.1364	0.136708	0.1363	-0.0303036	1	-0.00069547	41	32.6423	-4.13037e-06
2	0	0	1	1	55.3109	0.160196	0.159863	-0.0297473	1	-0.000730706	41	33.8168	-4.7555e-06
2	0	0	1	1	56.4853	0.183685	0.183356	-0.0292358	1	-0.000765322	41	34.9912	-5.36056e-06
2	0	0	1	1	57.6598	0.207174	0.206938	-0.0287651	1	-0.000799384	41	36.1657	-5.95258e-06
2	0	0	1	1	58.8342	0.230663	0.230338	-0.0282991	1	-0.000832885	41	37.3401	-6.51835e-06
2	0	0	1	1	60.0086	0.254152	0.254088	-0.0276585	1	-0.000865709	41	38.5145	-7.02771e-06
2	0	0	1	1	61.1831	0.277641	0.27747	-0.0270114	1	-0.000897828	41	39.689	-7.49486e-06
2	0	0	1	1	62.3575	0.301129	0.300819	-0.0259805	1	-0.000928996	41	40.8634	-7.81544e-06
2	0	0	1	1	63.532	0.324618	0.324411	-0.0242373	1	-0.000958551	41	42.0379	-7.86283e-06
2	0	0	1	1	64.7064	0.348107	0.347796	-0.020791	1	-0.000985166	41	43.2123	-7.23104e-06
2	0	0	1	1	65.8808	0.371595	0.371402	-0.0137616	1	-0.00100595	41	44.3867	-5.1111e-06
2	1	0	1	1	67.0853	0.395684	0.395274	0.00199602	1	-0.00101425	42	0.075	7.88974e-07
2	1	0	1	1	68.2897	0.419773	0.419581	0.0338231	1	-0.000994615	41	1.2794	1.41915e-05
2	1	0	1	1	69.4642	0.443263	0.44315	0.0827146	1	-0.000927464	41	2.4539	3.66549e-05
2	1	0	1	1	70.6286	0.466551	0.466462	0.132203	2	-0.000800657	40	3.6183	6.16676e-05
2	1	0	1	1	71.803	0.49004	0.489673	0.157236	2	-0.000626468	40	4.7927	7.69941e-05
2	1	0	1	1	72.9775	0.513528	0.513202	0.150935	2	-0.000442332	40	5.9672	7.74603e-05
2	1	0	1	1	74.1519	0.537017	0.53642	0.131076	2	-0.000275242	40	7.1416	7.03119e-05
2	1	0	1	1	75.3264	0.560506	0.560243	0.111102	2	-0.000132188	40	8.3161	6.22439e-05
2	1	0	1	1	76.5008	0.583995	0.583741	0.095601	2	-9.93778e-06	40	9.4905	5.58062e-05
[...]
2	1	0	1	1	90.5921	0.534219	0.533958	0.0235498	2	0.000825775	41	23.5818	1.25746e-05
2	0	0	1	1	91.7965	0.51013	0.509821	-0.00298045	2	0.000839894	42	0.0749	-1.5195e-06
2	0	0	1	1	93.001	0.486042	0.485885	-0.0484742	2	0.000810894	41	1.2794	-2.35529e-05
2	0	0	1	1	94.1754	0.462553	0.462463	-0.102729	2	0.000722008	41	2.4538	-4.75085e-05
2	0	0	1	1	95.3798	0.438464	0.438254	-0.140371	2	0.000572277	40	3.6582	-6.1518e-05
2	0	0	1	1	96.5543	0.414975	0.4146	-0.144355	2	0.000401564	40	4.8327	-5.98495e-05
2	0	0	1	1	97.7287	0.391487	0.391126	-0.12824	2	0.00023973	40	6.0071	-5.01581e-05
2	0	0	1	1	98.9032	0.367998	0.367571	-0.108408	2	0.000100138	40	7.1816	-3.98476e-05
2	0	0	1	1	100.078	0.344509	0.34409	-0.0917219	2	-1.7746e-05	40	8.356	-3.15606e-05
2	0	0	1	1	101.252	0.32102	0.32063	-0.0791911	2	-0.000118572	40	9.5304	-2.53911e-05
2	0	0	1	1	102.426	0.297531	0.297326	-0.0698213	2	-0.000206652	40	10.7049	-2.07597e-05
2	0	0	1	1	103.601	0.274042	0.273744	-0.0627	2	-0.000285184	40	11.8793	-1.71637e-05
2	0	0	1	1	104.775	0.250553	0.250438	-0.0572003	2	-0.000356445	40	13.0538	-1.43251e-05
2	0	0	1	1	105.95	0.227065	0.226634	-0.0526672	2	-0.000421969	40	14.2282	-1.19362e-05
2	0	0	1	1	107.124	0.203576	0.203133	-0.0490928	2	-0.00048296	40	15.4027	-9.97238e-06
2	0	0	1	1	108.299	0.180087	0.179765	-0.0459751	2	-0.000540216	40	16.5771	-8.26473e-06
2	0	0	1	1	109.473	0.156598	0.156481	-0.0434175	2	-0.000594372	40	17.7515	-6.79402e-06
2	0	0	1	1	110.678	0.13251	0.132208	-0.0427914	2	-0.000647196	41	18.956	-5.65739e-06
2	0	0	1	1	111.852	0.109021	0.108883	-0.0409999	2	-0.00069639	41	20.1304	-4.46419e-06
2	0	0	1	1	113.026	0.0855337	0.0851431	-0.0394723	2	-0.000743653	41	21.3048	-3.36079e-06
2	0	0	1	1	114.201	0.062043	0.0616491	-0.0382273	2	-0.000789299	41	22.4793	-2.35668e-06
2	0	0	1	1	115.375	0.0385542	0.0381611	-0.0372611	2	-0.00083364	41	23.6537	-1.42193e-06
2	0	0	1	1	116.55	0.0150654	0.0146614	-0.0364038	2	-0.000876904	41	24.8282	-5.33731e-07
2	0	0	1	0	117.692	0.00776883	0.00758644	-0.0346471	2	-0.000917714	41	25.9705	-2.62848e-07
2	0	0	1	0	118.866	0.0312577	0.0308938	-0.0339554	2	-0.000957936	41	27.1449	-1.04901e-06
2	0	0	1	0	120.041	0.0547465	0.0544498	-0.033459	2	-0.000997478	41	28.3194	-1.82184e-06
2	0	0	1	0	121.215	0.0782353	0.0778626	-0.0330586	2	-0.0010365	41	29.4938	-2.57403e-06
2	0	0	1	0	122.39	0.101724	0.101498	-0.0327678	2	-0.00107512	41	30.6683	-3.32586e-06
2	0	0	1	0	123.564	0.125213	0.125484	-0.0325561	2	-0.00111343	41	31.8427	-4.08528e-06
2	0	0	1	0	124.739	0.148702	0.148574	-0.03238	2	-0.00115152	41	33.0171	-4.81084e-06
2	0	0	1	0	125.913	0.172191	0.172131	-0.0322478	2	-0.00118945	41	34.1916	-5.55084e-06
2	0	0	1	0	127.088	0.19568	0.195457	-0.0321445	2	-0.00122724	41	35.366	-6.28288e-06
2	0	0	1	0	128.262	0.219168	0.218643	-0.0320192	2	-0.00126491	41	36.5405	-7.00078e-06
2	0	0	1	0	129.436	0.242657	0.242639	-0.0318639	2	-0.00130241	41	37.7149	-7.73141e-06
2	0	0	1	0	130.611	0.266146	0.265877	-0.0315797	2	-0.00133966	41	38.8894	-8.39633e-06
2	0	0	1	0	131.785	0.289635	0.289133	-0.0309477	2	-0.00137643	41	40.0638	-8.94801e-06
2	0	0	1	0	132.96	0.313124	0.313067	-0.0298504	2	-0.00141222	41	41.2382	-9.34517e-06
2	0	0	1	0	134.134	0.336613	0.336653	-0.0274451	2	-0.001446	41	42.4127	-9.23946e-06
2	0	0	1	0	135.309	0.360101	0.359783	-0.022643	2	-0.00147575	41	43.5871	-8.14655e-06
2	0	0	1	0	136.483	0.38359	0.383312	-0.0123803	2	-0.00149706	41	44.7616	-4.74553e-06
2	1	0	1	0	137.688	0.407679	0.407295	0.0104078	2	-0.00149984	42	0.4248	4.23905e-06
2	1	0	1	0	138.892	0.431767	0.43152	0.051934	2	-0.0014642	41	1.6292	2.24105e-05
2	1	0	0	0	139.886	0.451683	0.450623	0.0968826	2	-0.00139057	41	2.6228	4.36575e-05

File: 240313-CVEIS_PostActivation-Fe2Fe3_5mM-HCl1M-0000RPM-Ag_AgCl_BLF8-Au_RDE_02_PEIS_C15.mpt
EC-Lab ASCII FILE
Nb header lines : 66

Potentio Electrochemical Impedance Spectroscopy

Run on channel : 15 (SN 19485)
User :
Electrode connection : standard
Potential control : Ewe
Ewe ctrl range : min = -1.00 V, max = 1.00 V
Ewe,I filtering : <None>
Safety Limits :
	Do not start on E overload
Channel : Floating
Acquisition started on : 03/13/2024 16:38:30.802
Loaded Setting File :  C:\Data\mathias\GoldElectrode\240308-CVEIS_PostActivation-Fe2Fe3_5mM-HCl1M-0RPM-Ag_AgCl_BLF8-Au_RDE-C15.mps
Saved on :
	File : 240313-CVEIS_PostActivation-Fe2Fe3_5mM-HCl1M-0RPM-Ag_AgCl_BLF8-Au_RDE_02_PEIS_C15.mpr
	Directory : C:\Data\mathias\GoldElectrode\
	Host : 192.168.0.1
Device : VMP-300 (SN 0826)
Address : USB
EC-Lab for windows v11.52 (software)
Internet server v11.52 (firmware)
Command interpretor v11.52 (firmware)
Electrode material :
Initial state :
Electrolyte :
Comments :
Cable : special
Electrode surface area : 0.001 cm²
Characteristic mass : 0.001 g
Equivalent Weight : 0.000 g/eq.
Density : 0.000 g/cm3
Volume (V) : 0.001 cm³
Record EIS quality indicators
Cycle Definition : Charge/Discharge alternance
Mode                Single sine
E (V)               0.0000
vs.                 Eoc
tE (h:m:s)          0:01:0.0000
record              0
dI                  0.000
unit dI             mA
dt (s)              0.000
fi                  400.000
unit fi             kHz
ff                  100.000
unit ff             mHz
Nd                  10
Points              per decade
spacing             Logarithmic
Va (mV)             5.0
pw                  0.10
Na                  3
corr                0
E range min (V)     -1.000
E range max (V)     1.000
I Range             Auto
Bandwidth           8
nc cycles           1
goto Ns'            0
nr cycles           0
inc. cycle          1

freq/Hz	Re(Z)/Ohm	-Im(Z)/Ohm	|Z|/Ohm	Phase(Z)/deg	time/s	<Ewe>/V	<I>/mA	Cs/µF	Cp/µF	cycle number	I Range	|Ewe|/V	|I|/A	Ns	(Q-Qo)/mA.h	THD Ewe/%	NSD Ewe/%	NSR Ewe/%	|Ewe h2|/V	|Ewe h3|/V	|Ewe h4|/V	|Ewe h5|/V	|Ewe h6|/V	|Ewe h7|/V	THD I/%	NSD I/%	NSR I/%	|I h2|/A	|I h3|/A	|I h4|/A	|I h5|/A	|I h6|/A	|I h7|/A	Re(Y)/Ohm-1	Im(Y)/Ohm-1	|Y|/Ohm-1	Phase(Y)/deg	Re(C)/nF	Im(C)/nF	|C|/nF	Phase(C)/deg	Re(M)	Im(M)	|M|	Phase(M)/deg	Re(Permittivity)	Im(Permittivity)	|Permittivity|	Phase(Permittivity)/deg	Re(Resistivity)/Ohm.cm	Im(Resistivity)/Ohm.cm	|Resistivity|/Ohm.cm	Phase(Resistivity)/deg	Re(Conductivity)/mS/cm	Im(Conductivity)/mS/cm	|Conductivity|/mS/cm	Phase(Conductivity)/deg	Tan(Delta)	Loss Angle(Delta)/deg	dq/mA.h
399996	3.31182	1.45815	3.61861	-23.7633	203.378	0.451473	-0.0116505	0.272874	0.044308	1	38	0.00467274	0.00129131	0	4.68622e-05	-1	-1	-1	0	0	0	0	0	0	-1	-1	-1	0	0	0	0	0	0	0.25292	0.111357	0.276349	23.7633	44.308	100.634	109.957	-66.2367	0.0000000E+000	0.0000000E+000	0.0000000E+000	66.2367	0.0000000E+000	0.0000000E+000	0.0000000E+000	-66.2367	0.0000000E+000	0.0000000E+000	0.0000000E+000	-23.7633	0.0000000E+000	0.0000000E+000	0.0000000E+000	23.7633	2.27125	66.2367	4.68622e-05
50326.6	3.50725	0.686988	3.5739	-11.0826	213.703	0.451471	-0.00153451	4.60334	0.170093	1	38	0.00515952	0.00144367	0	3.55237e-05	1.00124	0.638209	18.7269	1.66961e-05	2.14492e-05	3.22082e-05	1.67095e-05	1.1785e-05	1.57654e-05	0.138914	0.0809191	2.01825	3.88953e-07	1.14014e-06	1.00017e-06	6.47475e-07	8.16721e-07	3.11228e-07	0.274589	0.0537855	0.279807	11.0826	170.093	868.37	884.872	-78.9174	0.0000000E+000	0.0000000E+000	0.0000000E+000	78.9174	0.0000000E+000	0.0000000E+000	0.0000000E+000	-78.9174	0.0000000E+000	0.0000000E+000	0.0000000E+000	-11.0826	0.0000000E+000	0.0000000E+000	0.0000000E+000	11.0826	5.10525	78.9174	-2.01166e-06
6332.63	4.13608	1.39592	4.36529	-18.6495	224.146	0.45135	-0.00194786	18.0042	1.84107	1	38	0.00515959	0.00118196	0	3.23263e-05	0.933005	0.462061	18.7618	2.9284e-05	1.93312e-05	1.38248e-05	9.71875e-06	1.26705e-05	1.92164e-05	0.138606	0.0912866	2.45946	8.75929e-07	5.21687e-07	5.94847e-07	2.43766e-07	5.46763e-07	7.48156e-07	0.217051	0.0732546	0.22908	18.6495	1841.07	5455.05	5757.35	-71.3505	0.0000000E+000	0.0000000E+000	0.0000000E+000	71.3505	0.0000000E+000	0.0000000E+000	0.0000000E+000	-71.3505	0.0000000E+000	0.0000000E+000	0.0000000E+000	-18.6495	0.0000000E+000	0.0000000E+000	0.0000000E+000	18.6495	2.96297	71.3505	-5.81137e-07
796.787	6.80055	7.08554	9.82101	-46.1757	234.561	0.451338	-0.00150288	28.1906	14.6736	1	38	0.00505446	0.000514657	0	2.74901e-05	1.1269	0.7263	19.1985	2.38568e-05	2.07936e-05	1.61912e-05	1.98523e-05	1.67915e-05	3.24838e-05	0.517908	0.26401	5.68705	1.79563e-06	1.31451e-06	3.06197e-07	1.08068e-06	8.11437e-07	3.1714e-07	0.0705069	0.0734615	0.101822	46.1757	14673.6	14083.4	20338.6	-43.8243	0.0000000E+000	0.0000000E+000	0.0000000E+000	43.8243	0.0000000E+000	0.0000000E+000	0.0000000E+000	-43.8243	0.0000000E+000	0.0000000E+000	0.0000000E+000	-46.1757	0.0000000E+000	0.0000000E+000	0.0000000E+000	46.1757	0.959779	43.8243	-1.82037e-07
100.224	24.8185	17.3394	30.2756	-34.9401	244.767	0.451375	-0.00063353	91.5822	30.0397	1	39	0.00493757	0.000163087	0	2.73738e-05	1.23921	0.603227	21.1071	2.5475e-05	2.91732e-05	1.87628e-05	1.79093e-05	2.4174e-05	1.77743e-05	0.581097	0.172252	7.73962	4.50298e-07	2.7309e-07	2.31194e-07	5.7826e-07	2.81762e-07	2.89932e-07	0.0270763	0.0189168	0.0330299	34.9401	30039.6	42996.7	52450.9	-55.0599	0.0000000E+000	0.0000000E+000	0.0000000E+000	55.0599	0.0000000E+000	0.0000000E+000	0.0000000E+000	-55.0599	0.0000000E+000	0.0000000E+000	0.0000000E+000	-34.9401	0.0000000E+000	0.0000000E+000	0.0000000E+000	34.9401	1.43133	55.0599	-1.92062e-08
12.6144	49.2657	24.2738	54.9211	-26.23	254.452	0.451383	-0.000404099	519.777	101.535	1	39	0.0049041	8.92935e-05	0	2.65768e-05	0.81658	0.522276	14.9929	1.69811e-05	1.25144e-05	2.05124e-05	1.05502e-05	1.73173e-05	1.42893e-05	0.666253	0.39023	10.2092	3.92102e-07	1.39836e-07	2.84172e-07	9.04199e-08	2.24445e-07	1.54154e-07	0.016333	0.00804747	0.0182079	26.23	101535	206073	229729	-63.77	0.0000000E+000	0.0000000E+000	0.0000000E+000	63.77	0.0000000E+000	0.0000000E+000	0.0000000E+000	-63.77	0.0000000E+000	0.0000000E+000	0.0000000E+000	-26.23	0.0000000E+000	0.0000000E+000	0.0000000E+000	26.23	2.02958	63.77	-5.97796e-08
1.5871	88.0881	51.7132	102.146	-30.4156	275.057	0.451395	-0.000588976	1939.16	497.022	1	40	0.00490865	4.80553e-05	0	2.12052e-05	0.744386	0.279909	11.6198	2.04481e-05	8.21281e-06	1.82664e-05	1.24638e-05	5.89759e-06	1.25977e-05	0.670302	0.301183	1.67732	2.93078e-07	7.6584e-08	2.34461e-08	8.33217e-08	2.1522e-08	3.18894e-08	0.00844259	0.00495633	0.00978992	30.4156	497022	846626	981737	-59.5844	0.0000000E+000	0.0000000E+000	0.0000000E+000	59.5844	0.0000000E+000	0.0000000E+000	0.0000000E+000	-59.5844	0.0000000E+000	0.0000000E+000	0.0000000E+000	-30.4156	0.0000000E+000	0.0000000E+000	0.0000000E+000	30.4156	1.7034	59.5844	-2.73927e-06
[...]
251.853	14.9621	15.1561	21.2972	-45.3691	601.589	0.4514	0.00152834	41.6951	21.1162	2	38	0.00491794	0.00023092	0	-4.10311e-05	1.05722	0.840727	19.9677	5.67382e-06	1.62742e-05	3.12024e-05	1.64052e-05	2.58069e-05	1.5695e-05	0.870572	0.335451	12.6776	1.21307e-06	7.22715e-07	5.91008e-07	7.85343e-07	6.9942e-07	4.30134e-07	0.0329873	0.0334151	0.0469545	45.3691	21116.2	20845.8	29672.2	-44.6309	0.0000000E+000	0.0000000E+000	0.0000000E+000	44.6309	0.0000000E+000	0.0000000E+000	0.0000000E+000	-44.6309	0.0000000E+000	0.0000000E+000	0.0000000E+000	-45.3691	0.0000000E+000	0.0000000E+000	0.0000000E+000	45.3691	0.987198	44.6309	2.15937e-07
31.6723	41.5268	21.5462	46.7837	-27.4226	611.603	0.451385	-0.000142235	233.222	49.4679	2	39	0.00492378	0.000105246	0	-4.08959e-05	0.988431	0.726905	21.1056	1.92228e-05	1.38801e-05	1.78379e-05	2.01927e-05	1.99187e-05	1.48795e-05	0.610887	0.402326	12.0933	2.46887e-07	2.22897e-07	2.16474e-07	1.99726e-07	2.60177e-07	2.51741e-07	0.0189731	0.00984425	0.021375	27.4226	49467.9	95341.1	107410	-62.5774	0.0000000E+000	0.0000000E+000	0.0000000E+000	62.5774	0.0000000E+000	0.0000000E+000	0.0000000E+000	-62.5774	0.0000000E+000	0.0000000E+000	0.0000000E+000	-27.4226	0.0000000E+000	0.0000000E+000	0.0000000E+000	27.4226	1.92733	62.5774	7.10361e-08
3.98597	71.7572	36.5692	80.5382	-27.0045	623.685	0.45141	-0.000288182	1091.87	225.111	2	40	0.00490809	6.09411e-05	0	-4.26188e-05	0.880898	0.839022	19.7949	2.69731e-05	9.51895e-06	8.80286e-06	1.73829e-05	1.34798e-05	1.76866e-05	0.521076	0.113662	2.15481	2.99786e-07	5.62215e-08	1.7413e-08	7.3203e-08	3.03073e-08	2.56774e-08	0.0110627	0.00563782	0.0124165	27.0045	225111	441721	495774	-62.9955	0.0000000E+000	0.0000000E+000	0.0000000E+000	62.9955	0.0000000E+000	0.0000000E+000	0.0000000E+000	-62.9955	0.0000000E+000	0.0000000E+000	0.0000000E+000	-27.0045	0.0000000E+000	0.0000000E+000	0.0000000E+000	27.0045	1.96223	62.9955	-8.66233e-07
0.501541	132.699	87.1317	158.748	-33.2894	678.576	0.4514	-0.000252249	3641.98	1097.17	2	40	0.00490308	3.0886e-05	0	-4.81226e-05	0.416609	0.171829	6.38289	7.60636e-06	6.3597e-06	1.0715e-05	6.20229e-06	7.01749e-06	5.67053e-06	0.682463	0.183852	1.56035	2.03894e-07	1.60461e-08	6.33875e-09	4.29156e-08	1.75021e-08	1.70667e-08	0.00526564	0.00345748	0.00629929	33.2894	1.09717e+06	1.67095e+06	1.99897e+06	-56.7106	0.0000000E+000	0.0000000E+000	0.0000000E+000	56.7106	0.0000000E+000	0.0000000E+000	0.0000000E+000	-56.7106	0.0000000E+000	0.0000000E+000	0.0000000E+000	-33.2894	0.0000000E+000	0.0000000E+000	0.0000000E+000	33.2894	1.52297	56.7106	-4.62693e-06
0.0999518	242.496	189.982	308.054	-38.0767	923.508	0.451402	0.000313147	8381.4	3187.78	2	41	0.00490322	1.59167e-05	0	-4.50269e-05	0.235426	0.145445	4.31395	4.60193e-06	5.562e-06	2.4924e-06	5.35025e-06	3.81698e-06	4.82385e-06	0.762921	0.28175	0.755549	1.1799e-07	1.2074e-08	9.12608e-09	2.09164e-08	7.25233e-09	4.3685e-09	0.00255535	0.00200197	0.00324618	38.0767	3.18778e+06	4.06892e+06	5.16895e+06	-51.9233	0.0000000E+000	0.0000000E+000	0.0000000E+000	51.9233	0.0000000E+000	0.0000000E+000	0.0000000E+000	-51.9233	0.0000000E+000	0.0000000E+000	0.0000000E+000	-38.0767	0.0000000E+000	0.0000000E+000	0.0000000E+000	38.0767	1.27641	51.9232	8.67368e-06