Folder: Thesis/Python/Data/GoldElectrode/240308 (part 3)

File: 240308-CVEIS_Activation-0p5H2SO4-Ag_AgCl_BLF8-Au_RDE-80cycles-C15_06_PEIS_C15.mpt
EC-Lab ASCII FILE
Nb header lines : 66

Potentio Electrochemical Impedance Spectroscopy

Run on channel : 15 (SN 19485)
User :
Electrode connection : standard
Potential control : Ewe
Ewe ctrl range : min = -2.50 V, max = 2.50 V
Ewe,I filtering : 50 kHz
Safety Limits :
	Do not start on E overload
Channel : Floating
Acquisition started on : 03/08/2024 16:29:18.805
Loaded Setting File :  NONE
Saved on :
	File : 240308-CVEIS_Activation-0p5H2SO4-Ag_AgCl_BLF8-Au_RDE-80cycles-C15_06_PEIS_C15.mpr
	Directory : C:\Data\mathias\GoldElectrode\
	Host : 192.168.0.1
Device : VMP-300 (SN 0826)
Address : USB
EC-Lab for windows v11.52 (software)
Internet server v11.52 (firmware)
Command interpretor v11.52 (firmware)
Electrode material :
Initial state :
Electrolyte :
Comments :
Cable : special
Electrode surface area : 0.001 cm²
Characteristic mass : 0.001 g
Equivalent Weight : 0.000 g/eq.
Density : 0.000 g/cm3
Volume (V) : 0.001 cm³
Record EIS quality indicators
Cycle Definition : Charge/Discharge alternance
Mode                Single sine
E (V)               0.0000
vs.                 Eoc
tE (h:m:s)          0:00:0.0000
record              0
dI                  0.000
unit dI             mA
dt (s)              0.000
fi                  100.000
unit fi             kHz
ff                  100.000
unit ff             Hz
Nd                  10
Points              per decade
spacing             Logarithmic
Va (mV)             5.0
pw                  0.10
Na                  2
corr                0
E range min (V)     -2.500
E range max (V)     2.500
I Range             Auto
Bandwidth           8
nc cycles           1
goto Ns'            0
nr cycles           0
inc. cycle          0

freq/Hz	Re(Z)/Ohm	-Im(Z)/Ohm	|Z|/Ohm	Phase(Z)/deg	time/s	<Ewe>/V	<I>/mA	Cs/µF	Cp/µF	cycle number	I Range	|Ewe|/V	|I|/A	Ns	(Q-Qo)/mA.h	THD Ewe/%	NSD Ewe/%	NSR Ewe/%	|Ewe h2|/V	|Ewe h3|/V	|Ewe h4|/V	|Ewe h5|/V	|Ewe h6|/V	|Ewe h7|/V	THD I/%	NSD I/%	NSR I/%	|I h2|/A	|I h3|/A	|I h4|/A	|I h5|/A	|I h6|/A	|I h7|/A	Re(Y)/Ohm-1	Im(Y)/Ohm-1	|Y|/Ohm-1	Phase(Y)/deg	Re(C)/nF	Im(C)/nF	|C|/nF	Phase(C)/deg	Re(M)	Im(M)	|M|	Phase(M)/deg	Re(Permittivity)	Im(Permittivity)	|Permittivity|	Phase(Permittivity)/deg	Re(Resistivity)/Ohm.cm	Im(Resistivity)/Ohm.cm	|Resistivity|/Ohm.cm	Phase(Resistivity)/deg	Re(Conductivity)/mS/cm	Im(Conductivity)/mS/cm	|Conductivity|/mS/cm	Phase(Conductivity)/deg	Tan(Delta)	Loss Angle(Delta)/deg	dq/mA.h
100004	6.13844	0.664264	6.17428	-6.17616	1185.88	0.399162	-0.0219135	2.39587	0.0277314	1	38	0.00483458	0.000783019	0	-6.44247e-06	1.89116	0.538024	31.2499	5.22274e-05	4.14713e-05	2.71217e-05	4.08574e-05	3.14312e-05	1.27346e-05	0.26136	0.157077	3.97339	5.94719e-07	1.18433e-06	8.21715e-07	6.2067e-07	6.23207e-07	7.31906e-07	0.161022	0.0174248	0.161962	6.17616	27.7314	256.265	257.761	-83.8238	0.0000000E+000	0.0000000E+000	0.0000000E+000	83.8238	0.0000000E+000	0.0000000E+000	0.0000000E+000	-83.8238	0.0000000E+000	0.0000000E+000	0.0000000E+000	-6.17616	0.0000000E+000	0.0000000E+000	0.0000000E+000	6.17616	9.24097	83.8238	-6.44247e-06
39814.1	6.25304	0.83277	6.30825	-7.58593	1189.13	0.399159	-0.011859	4.80019	0.0836549	1	38	0.00519008	0.000822746	0	-1.51418e-05	1.52941	0.741773	30.4971	3.75038e-06	1.48185e-05	2.79805e-05	1.54168e-05	4.15928e-05	4.5519e-05	0.257461	0.0794018	3.77582	5.7885e-07	1.60021e-06	5.12695e-07	5.06655e-07	6.14329e-07	5.56777e-07	0.157135	0.020927	0.158523	7.58593	83.655	628.141	633.687	-82.4141	0.0000000E+000	0.0000000E+000	0.0000000E+000	82.4141	0.0000000E+000	0.0000000E+000	0.0000000E+000	-82.4141	0.0000000E+000	0.0000000E+000	0.0000000E+000	-7.58593	0.0000000E+000	0.0000000E+000	0.0000000E+000	7.58593	7.50872	82.4141	-3.33256e-06
15847.7	6.58485	1.5615	6.76746	-13.3404	1192.39	0.399187	-0.0102353	6.43152	0.342408	1	38	0.00513155	0.000758268	0	-2.21385e-05	1.8753	0.811798	30.3709	3.44901e-05	5.4541e-05	3.47656e-05	1.79127e-05	2.29758e-05	4.46376e-05	0.276923	0.1166	4.20413	4.66343e-07	5.94623e-07	7.77685e-07	6.06975e-07	6.3735e-07	1.15617e-06	0.143779	0.0340949	0.147766	13.3404	342.408	1443.94	1483.98	-76.6596	0.0000000E+000	0.0000000E+000	0.0000000E+000	76.6596	0.0000000E+000	0.0000000E+000	0.0000000E+000	-76.6596	0.0000000E+000	0.0000000E+000	0.0000000E+000	-13.3404	0.0000000E+000	0.0000000E+000	0.0000000E+000	13.3404	4.21702	76.6596	-1.46415e-06
6307.74	7.31212	3.03115	7.91549	-22.5159	1195.77	0.39902	-0.00922432	8.32414	1.22067	1	38	0.00509165	0.000643252	0	-3.1185e-05	1.72699	0.769728	32.1664	2.85876e-05	6.50417e-05	3.08359e-05	2.67119e-05	2.04893e-05	2.08394e-05	0.295776	0.199025	4.94699	1.00125e-06	1.0175e-06	6.78084e-07	5.4757e-07	5.07177e-07	7.04814e-07	0.116705	0.0483785	0.126335	22.5159	1220.67	2944.66	3187.64	-67.4841	0.0000000E+000	0.0000000E+000	0.0000000E+000	67.4841	0.0000000E+000	0.0000000E+000	0.0000000E+000	-67.4841	0.0000000E+000	0.0000000E+000	0.0000000E+000	-22.5159	0.0000000E+000	0.0000000E+000	0.0000000E+000	22.5159	2.41233	67.4841	-1.04448e-06
2512.41	8.51686	5.61992	10.2039	-33.4192	1198.97	0.399007	-0.00871601	11.272	3.4192	1	38	0.00512387	0.000502146	0	-3.78769e-05	1.32992	1.41362	31.4812	3.20689e-05	2.90342e-05	2.86778e-05	2.80558e-05	2.49044e-05	1.65404e-05	0.34595	0.312446	6.42629	1.04754e-06	7.07711e-07	6.37451e-07	4.13822e-07	7.15313e-07	5.25981e-07	0.0817982	0.0539752	0.0980013	33.4192	3419.2	5181.71	6208.14	-56.5808	0.0000000E+000	0.0000000E+000	0.0000000E+000	56.5808	0.0000000E+000	0.0000000E+000	0.0000000E+000	-56.5808	0.0000000E+000	0.0000000E+000	0.0000000E+000	-33.4192	0.0000000E+000	0.0000000E+000	0.0000000E+000	33.4192	1.51548	56.5808	-1.90967e-06
999.682	10.4343	10.777	15.0006	-45.9257	1201.95	0.399004	-0.0087905	14.7727	7.62497	1	38	0.00499888	0.000333245	0	-4.52961e-05	2.07426	0.730061	31.2144	3.93624e-05	1.16089e-05	6.65142e-05	3.11602e-05	5.70701e-05	1.76424e-05	0.592807	0.317653	9.47521	1.34122e-06	7.29142e-07	5.56254e-07	9.57405e-07	3.74477e-07	2.70778e-07	0.0463707	0.0478938	0.0666638	45.9257	7624.97	7382.48	10613.3	-44.0743	0.0000000E+000	0.0000000E+000	0.0000000E+000	44.0743	0.0000000E+000	0.0000000E+000	0.0000000E+000	-44.0743	0.0000000E+000	0.0000000E+000	0.0000000E+000	-45.9257	0.0000000E+000	0.0000000E+000	0.0000000E+000	45.9257	0.968198	44.0743	-1.68618e-06
398.089	12.8704	22.979	26.3379	-60.7471	1204.92	0.399062	-0.0041487	17.3984	13.2437	1	38	0.00495376	0.000188085	0	-4.96127e-05	1.62962	1.0143	29.9187	1.81766e-05	3.24835e-05	2.31601e-05	4.54471e-05	2.73162e-05	4.09725e-05	0.861726	0.664689	16.6813	7.80521e-07	4.05849e-07	6.6087e-07	5.20824e-07	6.93119e-07	6.16074e-07	0.0185537	0.0331261	0.0379681	60.7471	13243.7	7417.73	15179.6	-29.2529	0.0000000E+000	0.0000000E+000	0.0000000E+000	29.2529	0.0000000E+000	0.0000000E+000	0.0000000E+000	-29.2529	0.0000000E+000	0.0000000E+000	0.0000000E+000	-60.7471	0.0000000E+000	0.0000000E+000	0.0000000E+000	60.7471	0.560094	29.2529	-1.05521e-06
[...]
1995.64	8.90666	6.65225	11.1167	-36.7555	1224.91	0.399043	-0.00511689	11.9886	4.29294	2	38	0.00493218	0.000443673	0	-7.08634e-05	1.9484	0.877166	32.065	3.65798e-05	2.9548e-05	3.04428e-05	2.17538e-05	5.14481e-05	4.44017e-05	0.398634	0.171334	7.12547	6.17567e-07	1.10399e-06	4.80701e-07	2.93726e-07	3.24339e-07	9.33063e-07	0.0720714	0.0538291	0.0899547	36.7555	4292.94	5747.8	7174.02	-53.2445	0.0000000E+000	0.0000000E+000	0.0000000E+000	53.2445	0.0000000E+000	0.0000000E+000	0.0000000E+000	-53.2445	0.0000000E+000	0.0000000E+000	0.0000000E+000	-36.7555	0.0000000E+000	0.0000000E+000	0.0000000E+000	36.7555	1.33889	53.2445	-8.79823e-07
794.239	10.9525	13.0488	17.0361	-49.9917	1227.88	0.399047	-0.00416173	15.3567	9.0095	2	38	0.00481817	0.000282822	0	-7.42244e-05	1.76708	0.867493	31.7767	3.41661e-05	1.17886e-05	1.34964e-05	4.82841e-05	4.7474e-05	2.53679e-05	0.719971	0.332444	11.5053	1.36438e-06	7.45298e-07	5.25551e-07	7.13279e-07	6.83426e-07	4.06834e-07	0.0377375	0.0449606	0.058699	49.9917	9009.5	7562.1	11762.5	-40.0083	0.0000000E+000	0.0000000E+000	0.0000000E+000	40.0083	0.0000000E+000	0.0000000E+000	0.0000000E+000	-40.0083	0.0000000E+000	0.0000000E+000	0.0000000E+000	-49.9917	0.0000000E+000	0.0000000E+000	0.0000000E+000	49.9917	0.839347	40.0083	-8.98794e-07
316.316	13.6723	28.0454	31.2006	-64.0104	1231.11	0.399051	-0.000491696	17.9406	14.4955	2	39	0.00490475	0.0001572	0	-7.65935e-05	1.19766	0.878286	30.4566	8.14171e-06	2.75779e-05	2.55414e-05	1.63807e-05	1.46212e-05	3.51978e-05	0.743187	0.147836	8.66996	7.85505e-07	4.32591e-07	3.46468e-07	5.75189e-07	2.50713e-07	9.78644e-08	0.0140448	0.0288095	0.0320506	64.0104	14495.5	7066.68	16126.3	-25.9896	0.0000000E+000	0.0000000E+000	0.0000000E+000	25.9896	0.0000000E+000	0.0000000E+000	0.0000000E+000	-25.9896	0.0000000E+000	0.0000000E+000	0.0000000E+000	-64.0104	0.0000000E+000	0.0000000E+000	0.0000000E+000	64.0104	0.487507	25.9896	-1.85989e-07
125.927	18.2879	63.9605	66.5236	-74.0434	1234.08	0.399054	-0.000555067	19.7602	18.2668	2	39	0.00477831	7.18288e-05	0	-7.68153e-05	1.3048	0.696459	31.3875	1.83592e-05	2.23468e-05	2.69187e-05	3.52823e-05	1.89799e-05	2.16918e-05	1.18179	0.676911	19.3327	3.8904e-07	1.78927e-07	3.08512e-07	4.1022e-07	3.6254e-07	2.95511e-07	0.0041325	0.0144531	0.0150323	74.0434	18266.8	5222.93	18998.8	-15.9566	0.0000000E+000	0.0000000E+000	0.0000000E+000	15.9566	0.0000000E+000	0.0000000E+000	0.0000000E+000	-15.9566	0.0000000E+000	0.0000000E+000	0.0000000E+000	-74.0434	0.0000000E+000	0.0000000E+000	0.0000000E+000	74.0434	0.285925	15.9566	-1.47483e-07
99.9682	19.7053	78.3654	80.8049	-75.8854	1234.82	0.39906	-0.000386953	20.3158	19.1076	2	39	0.00474328	5.87004e-05	0	-7.69339e-05	1.16694	0.885093	31.2275	2.76637e-05	2.04546e-05	2.12017e-05	2.25506e-05	2.3323e-05	1.49709e-05	1.25174	0.64191	24.07	2.74734e-07	1.78356e-07	2.56857e-07	4.30662e-07	2.52137e-07	2.74263e-07	0.00301791	0.0120019	0.0123755	75.8854	19107.6	4804.69	19702.5	-14.1146	0.0000000E+000	0.0000000E+000	0.0000000E+000	14.1146	0.0000000E+000	0.0000000E+000	0.0000000E+000	-14.1146	0.0000000E+000	0.0000000E+000	0.0000000E+000	-75.8854	0.0000000E+000	0.0000000E+000	0.0000000E+000	75.8854	0.251454	14.1146	-1.18539e-07

File: 240308-CVEIS_Activation-0p5H2SO4-Ag_AgCl_BLF8-Au_RDE-80cycles-C15_08_PEIS_C15.mpt
EC-Lab ASCII FILE
Nb header lines : 66

Potentio Electrochemical Impedance Spectroscopy

Run on channel : 15 (SN 19485)
User :
Electrode connection : standard
Potential control : Ewe
Ewe ctrl range : min = -2.50 V, max = 2.50 V
Ewe,I filtering : 50 kHz
Safety Limits :
	Do not start on E overload
Channel : Floating
Acquisition started on : 03/08/2024 16:29:18.805
Loaded Setting File :  NONE
Saved on :
	File : 240308-CVEIS_Activation-0p5H2SO4-Ag_AgCl_BLF8-Au_RDE-80cycles-C15_08_PEIS_C15.mpr
	Directory : C:\Data\mathias\GoldElectrode\
	Host : 192.168.0.1
Device : VMP-300 (SN 0826)
Address : USB
EC-Lab for windows v11.52 (software)
Internet server v11.52 (firmware)
Command interpretor v11.52 (firmware)
Electrode material :
Initial state :
Electrolyte :
Comments :
Cable : special
Electrode surface area : 0.001 cm²
Characteristic mass : 0.001 g
Equivalent Weight : 0.000 g/eq.
Density : 0.000 g/cm3
Volume (V) : 0.001 cm³
Record EIS quality indicators
Cycle Definition : Charge/Discharge alternance
Mode                Single sine
E (V)               0.0000
vs.                 Eoc
tE (h:m:s)          0:00:0.0000
record              0
dI                  0.000
unit dI             mA
dt (s)              0.000
fi                  100.000
unit fi             kHz
ff                  100.000
unit ff             Hz
Nd                  10
Points              per decade
spacing             Logarithmic
Va (mV)             5.0
pw                  0.10
Na                  2
corr                0
E range min (V)     -2.500
E range max (V)     2.500
I Range             Auto
Bandwidth           8
nc cycles           1
goto Ns'            0
nr cycles           0
inc. cycle          0

freq/Hz	Re(Z)/Ohm	-Im(Z)/Ohm	|Z|/Ohm	Phase(Z)/deg	time/s	<Ewe>/V	<I>/mA	Cs/µF	Cp/µF	cycle number	I Range	|Ewe|/V	|I|/A	Ns	(Q-Qo)/mA.h	THD Ewe/%	NSD Ewe/%	NSR Ewe/%	|Ewe h2|/V	|Ewe h3|/V	|Ewe h4|/V	|Ewe h5|/V	|Ewe h6|/V	|Ewe h7|/V	THD I/%	NSD I/%	NSR I/%	|I h2|/A	|I h3|/A	|I h4|/A	|I h5|/A	|I h6|/A	|I h7|/A	Re(Y)/Ohm-1	Im(Y)/Ohm-1	|Y|/Ohm-1	Phase(Y)/deg	Re(C)/nF	Im(C)/nF	|C|/nF	Phase(C)/deg	Re(M)	Im(M)	|M|	Phase(M)/deg	Re(Permittivity)	Im(Permittivity)	|Permittivity|	Phase(Permittivity)/deg	Re(Resistivity)/Ohm.cm	Im(Resistivity)/Ohm.cm	|Resistivity|/Ohm.cm	Phase(Resistivity)/deg	Re(Conductivity)/mS/cm	Im(Conductivity)/mS/cm	|Conductivity|/mS/cm	Phase(Conductivity)/deg	Tan(Delta)	Loss Angle(Delta)/deg	dq/mA.h
100004	6.13765	0.638321	6.17075	-5.93747	1598.15	0.399186	-0.0225428	2.49324	0.0266789	1	38	0.00484233	0.000784723	0	-8.96505e-06	1.51909	0.750343	32.4047	4.09183e-05	1.79483e-05	1.65724e-05	2.35481e-05	3.5461e-05	3.07904e-05	0.191775	0.0874452	3.96089	5.91864e-07	2.52824e-07	7.02809e-07	8.04885e-07	4.8735e-07	4.7037e-07	0.161186	0.0167635	0.162055	5.93747	26.6789	256.525	257.909	-84.0625	0.0000000E+000	0.0000000E+000	0.0000000E+000	84.0625	0.0000000E+000	0.0000000E+000	0.0000000E+000	-84.0625	0.0000000E+000	0.0000000E+000	0.0000000E+000	-5.93747	0.0000000E+000	0.0000000E+000	0.0000000E+000	5.93747	9.61529	84.0625	-8.96505e-06
39814.1	6.27771	0.815209	6.33041	-7.3989	1601.4	0.399174	-0.0112203	4.90359	0.0813183	1	38	0.00521012	0.00082303	0	-1.83003e-05	1.67675	0.84144	29.1868	2.8489e-05	2.14205e-05	4.21874e-05	4.0628e-05	1.73835e-05	4.60562e-05	0.167585	0.0438089	3.88839	7.46465e-07	6.57956e-07	4.95788e-07	5.91526e-07	4.32543e-07	1.59693e-07	0.156652	0.0203425	0.157968	7.3989	81.3183	626.21	631.468	-82.6011	0.0000000E+000	0.0000000E+000	0.0000000E+000	82.6011	0.0000000E+000	0.0000000E+000	0.0000000E+000	-82.6011	0.0000000E+000	0.0000000E+000	0.0000000E+000	-7.3989	0.0000000E+000	0.0000000E+000	0.0000000E+000	7.3989	7.70073	82.6011	-1.72111e-06
15847.7	6.51375	1.5079	6.68601	-13.0341	1604.66	0.399158	-0.010779	6.66013	0.33876	1	38	0.00513526	0.000768061	0	-2.7108e-05	1.22928	1.02001	30.5179	1.10295e-05	1.76348e-05	2.63145e-05	2.35109e-05	1.70843e-05	3.11676e-05	0.187941	0.127263	4.04193	4.34436e-07	5.60101e-07	4.5603e-07	4.05599e-07	5.47567e-07	8.12129e-07	0.145713	0.0337317	0.149566	13.0341	338.76	1463.36	1502.06	-76.9659	0.0000000E+000	0.0000000E+000	0.0000000E+000	76.9659	0.0000000E+000	0.0000000E+000	0.0000000E+000	-76.9659	0.0000000E+000	0.0000000E+000	0.0000000E+000	-13.0341	0.0000000E+000	0.0000000E+000	0.0000000E+000	13.0341	4.31976	76.9659	-3.11219e-06
6307.74	7.29734	2.88066	7.84534	-21.5419	1608.04	0.399034	-0.0110118	8.759	1.18091	1	38	0.00506831	0.000646028	0	-3.9613e-05	2.09597	0.690343	30.886	6.39277e-06	8.68612e-05	3.68472e-05	2.20127e-05	2.71288e-05	2.12485e-05	0.382861	0.162523	4.92723	4.52044e-07	1.9243e-06	7.02204e-07	4.51782e-07	8.10283e-07	5.64295e-07	0.118561	0.0468024	0.127464	21.5419	1180.91	2991.49	3216.14	-68.4581	0.0000000E+000	0.0000000E+000	0.0000000E+000	68.4581	0.0000000E+000	0.0000000E+000	0.0000000E+000	-68.4581	0.0000000E+000	0.0000000E+000	0.0000000E+000	-21.5419	0.0000000E+000	0.0000000E+000	0.0000000E+000	21.5419	2.53322	68.4581	-3.89637e-06
2512.41	8.45499	5.52767	10.1016	-33.1757	1611.24	0.399041	-0.00917964	11.4601	3.43157	1	38	0.00514982	0.000509803	0	-4.8862e-05	1.36806	1.2888	30.6545	4.21777e-05	2.43799e-05	2.92281e-05	1.34417e-05	2.06686e-05	3.09343e-05	0.357957	0.26133	6.33609	8.46785e-07	1.04792e-06	6.40371e-07	6.062e-07	5.78224e-07	4.9948e-07	0.0828579	0.0541706	0.0989944	33.1757	3431.57	5248.84	6271.05	-56.8243	0.0000000E+000	0.0000000E+000	0.0000000E+000	56.8243	0.0000000E+000	0.0000000E+000	0.0000000E+000	-56.8243	0.0000000E+000	0.0000000E+000	0.0000000E+000	-33.1757	0.0000000E+000	0.0000000E+000	0.0000000E+000	33.1757	1.52957	56.8243	-1.52182e-06
999.682	10.2775	10.7546	14.8757	-46.2996	1614.22	0.399042	-0.00773106	14.8035	7.7374	1	38	0.00505062	0.000339521	0	-5.57379e-05	2.08368	0.865689	30.9938	3.96044e-05	2.03982e-05	4.96581e-05	6.62044e-05	2.95301e-05	2.97425e-05	0.528259	0.228944	9.48362	9.13132e-07	8.53002e-07	5.47626e-07	4.66177e-07	6.26979e-07	5.33479e-07	0.0464439	0.0486001	0.0672235	46.2996	7737.4	7394.13	10702.4	-43.7004	0.0000000E+000	0.0000000E+000	0.0000000E+000	43.7004	0.0000000E+000	0.0000000E+000	0.0000000E+000	-43.7004	0.0000000E+000	0.0000000E+000	0.0000000E+000	-46.2996	0.0000000E+000	0.0000000E+000	0.0000000E+000	46.2996	0.955635	43.7004	-1.76361e-06
398.089	12.5388	22.7091	25.9408	-61.0948	1617.19	0.399044	-0.00485437	17.6052	13.4919	1	38	0.0049287	0.000189998	0	-6.04876e-05	2.23653	1.81054	32.5675	3.90745e-05	2.26261e-05	5.29208e-05	2.23013e-05	5.70107e-05	5.09691e-05	1.05062	0.705743	16.8922	1.1765e-06	3.12683e-07	5.47175e-07	1.05564e-06	9.5258e-07	2.81209e-07	0.0186333	0.0337469	0.0385493	61.0948	13491.9	7449.53	15411.9	-28.9052	0.0000000E+000	0.0000000E+000	0.0000000E+000	28.9052	0.0000000E+000	0.0000000E+000	0.0000000E+000	-28.9052	0.0000000E+000	0.0000000E+000	0.0000000E+000	-61.0948	0.0000000E+000	0.0000000E+000	0.0000000E+000	61.0948	0.552147	28.9052	-8.6797e-07
[...]
1995.64	8.87313	6.43424	10.9605	-35.9473	1637.18	0.399008	-0.00589332	12.3949	4.27147	2	38	0.00510185	0.000465477	0	-8.90083e-05	1.47111	0.942661	30.7237	3.35731e-05	3.07412e-05	1.28343e-05	2.86854e-05	4.09458e-05	2.85972e-05	0.349937	0.209613	6.87652	4.78928e-07	1.06696e-06	2.66714e-07	3.88313e-07	7.4182e-07	5.13536e-07	0.0738616	0.0535598	0.091237	35.9473	4271.47	5890.57	7276.28	-54.0527	0.0000000E+000	0.0000000E+000	0.0000000E+000	54.0527	0.0000000E+000	0.0000000E+000	0.0000000E+000	-54.0527	0.0000000E+000	0.0000000E+000	0.0000000E+000	-35.9473	0.0000000E+000	0.0000000E+000	0.0000000E+000	35.9473	1.37905	54.0527	-1.36082e-06
794.239	10.7595	12.9738	16.8549	-50.3301	1640.15	0.398999	-0.0058114	15.4455	9.15133	2	38	0.00500467	0.000296927	0	-9.31588e-05	1.72239	1.07673	30.6453	2.90962e-05	3.37869e-05	4.02306e-05	4.85052e-05	8.42775e-06	2.73299e-05	0.869767	0.396935	10.8695	1.8564e-06	7.7635e-07	9.68788e-07	6.40215e-07	5.80803e-07	7.75432e-07	0.0378741	0.0456684	0.05933	50.3301	9151.33	7589.47	11888.9	-39.6699	0.0000000E+000	0.0000000E+000	0.0000000E+000	39.6699	0.0000000E+000	0.0000000E+000	0.0000000E+000	-39.6699	0.0000000E+000	0.0000000E+000	0.0000000E+000	-50.3301	0.0000000E+000	0.0000000E+000	0.0000000E+000	50.3301	0.82933	39.6699	-1.03104e-06
316.316	13.3337	27.8756	30.9005	-64.4369	1643.38	0.399021	-0.000364957	18.0499	14.6891	2	39	0.00508913	0.000164694	0	-9.59843e-05	1.5549	0.688269	27.4983	3.36551e-05	3.72235e-05	2.31522e-05	3.56025e-05	3.33028e-05	1.63813e-05	0.878022	0.295457	8.35351	1.28545e-06	2.94879e-07	2.49012e-07	4.51802e-07	1.49349e-07	2.19151e-07	0.0139644	0.0291941	0.032362	64.4369	14689.1	7026.2	16283	-25.5631	0.0000000E+000	0.0000000E+000	0.0000000E+000	25.5631	0.0000000E+000	0.0000000E+000	0.0000000E+000	-25.5631	0.0000000E+000	0.0000000E+000	0.0000000E+000	-64.4369	0.0000000E+000	0.0000000E+000	0.0000000E+000	64.4369	0.478329	25.5631	-7.75193e-08
125.927	17.5167	63.349	65.7262	-74.5433	1646.35	0.39907	-0.00080817	19.9509	18.5338	2	39	0.00492784	7.49752e-05	0	-9.62992e-05	1.31788	0.791513	30.7604	2.16357e-05	1.51337e-05	3.83483e-05	3.57419e-05	1.57442e-05	1.95701e-05	0.871424	0.435221	18.0189	2.61157e-07	2.14004e-07	2.22575e-07	3.03555e-07	2.14407e-07	2.91011e-07	0.00405486	0.0146643	0.0152146	74.5433	18533.8	5124.81	19229.3	-15.4567	0.0000000E+000	0.0000000E+000	0.0000000E+000	15.4567	0.0000000E+000	0.0000000E+000	0.0000000E+000	-15.4567	0.0000000E+000	0.0000000E+000	0.0000000E+000	-74.5433	0.0000000E+000	0.0000000E+000	0.0000000E+000	74.5433	0.276512	15.4567	-1.20842e-07
99.9682	19.5944	79.0878	81.479	-76.0849	1647.09	0.399031	-0.000249032	20.1302	18.9661	2	39	0.00494682	6.07128e-05	0	-9.64568e-05	1.18146	0.875036	31.6524	3.89685e-05	2.03399e-05	7.21565e-06	2.43686e-05	1.56314e-05	1.02456e-05	1.49741	0.833713	23.4568	5.11473e-07	3.14504e-07	3.4153e-07	4.15593e-07	1.63921e-07	2.6684e-07	0.00295149	0.0119129	0.0122731	76.0849	18966	4698.93	19539.5	-13.9151	0.0000000E+000	0.0000000E+000	0.0000000E+000	13.9151	0.0000000E+000	0.0000000E+000	0.0000000E+000	-13.9151	0.0000000E+000	0.0000000E+000	0.0000000E+000	-76.0849	0.0000000E+000	0.0000000E+000	0.0000000E+000	76.0849	0.247755	13.9151	-1.57625e-07