Folder: Thesis/Python/Data/GoldElectrode/240313 (part 2)

File: 240313-CVEIS_Activation-0p5H2SO4-Ag_AgCl_BLF8-Au_RDE-80cycles_04_PEIS_C15.mpt
EC-Lab ASCII FILE
Nb header lines : 66

Potentio Electrochemical Impedance Spectroscopy

Run on channel : 15 (SN 19485)
User :
Electrode connection : standard
Potential control : Ewe
Ewe ctrl range : min = -2.50 V, max = 2.50 V
Ewe,I filtering : 50 kHz
Safety Limits :
	Do not start on E overload
Channel : Floating
Acquisition started on : 03/13/2024 15:25:11.595
Loaded Setting File :  C:\Data\mathias\GoldElectrode\240308-CVEIS_Activation-0p5H2SO4-Ag_AgCl_BLF8-Au_RDE-80cycles-C15.mps
Saved on :
	File : 240313-CVEIS_Activation-0p5H2SO4-Ag_AgCl_BLF8-Au_RDE-80cycles_04_PEIS_C15.mpr
	Directory : C:\Data\mathias\GoldElectrode\
	Host : 192.168.0.1
Device : VMP-300 (SN 0826)
Address : USB
EC-Lab for windows v11.52 (software)
Internet server v11.52 (firmware)
Command interpretor v11.52 (firmware)
Electrode material :
Initial state :
Electrolyte :
Comments :
Cable : special
Electrode surface area : 0.001 cm²
Characteristic mass : 0.001 g
Equivalent Weight : 0.000 g/eq.
Density : 0.000 g/cm3
Volume (V) : 0.001 cm³
Record EIS quality indicators
Cycle Definition : Charge/Discharge alternance
Mode                Single sine
E (V)               0.0000
vs.                 Eoc
tE (h:m:s)          0:00:0.0000
record              0
dI                  0.000
unit dI             mA
dt (s)              0.000
fi                  100.000
unit fi             kHz
ff                  100.000
unit ff             Hz
Nd                  10
Points              per decade
spacing             Logarithmic
Va (mV)             5.0
pw                  0.10
Na                  2
corr                0
E range min (V)     -2.500
E range max (V)     2.500
I Range             Auto
Bandwidth           8
nc cycles           0
goto Ns'            0
nr cycles           0
inc. cycle          0

freq/Hz	Re(Z)/Ohm	-Im(Z)/Ohm	|Z|/Ohm	Phase(Z)/deg	time/s	<Ewe>/V	<I>/mA	Cs/µF	Cp/µF	cycle number	I Range	|Ewe|/V	|I|/A	Ns	(Q-Qo)/mA.h	THD Ewe/%	NSD Ewe/%	NSR Ewe/%	|Ewe h2|/V	|Ewe h3|/V	|Ewe h4|/V	|Ewe h5|/V	|Ewe h6|/V	|Ewe h7|/V	THD I/%	NSD I/%	NSR I/%	|I h2|/A	|I h3|/A	|I h4|/A	|I h5|/A	|I h6|/A	|I h7|/A	Re(Y)/Ohm-1	Im(Y)/Ohm-1	|Y|/Ohm-1	Phase(Y)/deg	Re(C)/nF	Im(C)/nF	|C|/nF	Phase(C)/deg	Re(M)	Im(M)	|M|	Phase(M)/deg	Re(Permittivity)	Im(Permittivity)	|Permittivity|	Phase(Permittivity)/deg	Re(Resistivity)/Ohm.cm	Im(Resistivity)/Ohm.cm	|Resistivity|/Ohm.cm	Phase(Resistivity)/deg	Re(Conductivity)/mS/cm	Im(Conductivity)/mS/cm	|Conductivity|/mS/cm	Phase(Conductivity)/deg	Tan(Delta)	Loss Angle(Delta)/deg	dq/mA.h
100004	7.42835	0.757742	7.46689	-5.82441	390.347	0.448448	-0.0183125	2.10031	0.0216294	1	38	0.00479503	0.000642172	0	-5.20902e-06	2.18597	1.17968	47.9804	4.18574e-05	4.81565e-05	3.5662e-05	1.62921e-05	4.09391e-05	4.51058e-05	0.363105	0.175429	5.83831	7.1652e-07	1.20729e-06	4.31361e-07	1.16551e-06	5.21494e-07	1.02723e-06	0.133233	0.0135907	0.133924	5.82441	21.6295	212.039	213.14	-84.1756	0.0000000E+000	0.0000000E+000	0.0000000E+000	84.1756	0.0000000E+000	0.0000000E+000	0.0000000E+000	-84.1756	0.0000000E+000	0.0000000E+000	0.0000000E+000	-5.82441	0.0000000E+000	0.0000000E+000	0.0000000E+000	5.82441	9.80327	84.1756	-5.20902e-06
63093.8	7.52025	0.691385	7.55197	-5.2528	391.975	0.448476	-0.0077087	3.64849	0.0305797	1	38	0.00517148	0.000684786	0	-6.88666e-06	2.42564	1.46292	44.5436	6.64619e-05	8.67747e-05	2.86522e-05	1.72548e-05	3.21087e-05	3.35721e-05	0.282291	0.172221	5.49345	9.5354e-07	5.21905e-07	1.32414e-06	4.44946e-07	2.96e-07	3.5784e-07	0.13186	0.0121227	0.132416	5.2528	30.5797	332.618	334.021	-84.7472	0.0000000E+000	0.0000000E+000	0.0000000E+000	84.7472	0.0000000E+000	0.0000000E+000	0.0000000E+000	-84.7472	0.0000000E+000	0.0000000E+000	0.0000000E+000	-5.2528	0.0000000E+000	0.0000000E+000	0.0000000E+000	5.2528	10.8771	84.7472	-7.29705e-07
39814.1	7.61054	0.724295	7.64493	-5.43646	393.603	0.448443	-0.00790979	5.5191	0.0495395	1	38	0.00520733	0.000681147	0	-8.48922e-06	2.71889	1.16148	46.4743	7.32284e-05	3.30895e-05	3.88718e-05	5.55334e-05	5.04322e-05	7.47979e-05	0.333158	0.144844	5.59408	9.85445e-07	6.92935e-07	7.86003e-07	9.55949e-07	7.58564e-07	1.00153e-06	0.130217	0.0123928	0.130806	5.43646	49.5395	520.538	522.89	-84.5635	0.0000000E+000	0.0000000E+000	0.0000000E+000	84.5635	0.0000000E+000	0.0000000E+000	0.0000000E+000	-84.5635	0.0000000E+000	0.0000000E+000	0.0000000E+000	-5.43646	0.0000000E+000	0.0000000E+000	0.0000000E+000	5.43646	10.5075	84.5635	-1.28667e-06
25116.9	7.69105	0.87275	7.74041	-6.47401	395.232	0.448405	-0.00783531	7.26046	0.0923031	1	38	0.00515616	0.000666136	0	-1.19498e-05	2.23374	3.01761	45.3291	6.09617e-05	3.57351e-05	5.08674e-05	5.73389e-05	1.47568e-05	2.34695e-05	0.45437	0.26301	5.87931	8.92024e-07	1.29153e-06	1.53289e-06	6.51765e-07	1.42478e-06	1.10328e-06	0.128368	0.0145667	0.129192	6.47401	92.3031	813.414	818.635	-83.526	0.0000000E+000	0.0000000E+000	0.0000000E+000	83.526	0.0000000E+000	0.0000000E+000	0.0000000E+000	-83.526	0.0000000E+000	0.0000000E+000	0.0000000E+000	-6.47401	0.0000000E+000	0.0000000E+000	0.0000000E+000	6.47401	8.81243	83.526	-2.02327e-06
15847.7	7.84565	1.2619	7.94649	-9.13725	396.86	0.448488	-0.00800103	7.95845	0.200692	1	38	0.00516568	0.000650059	0	-1.48542e-05	2.09918	1.56427	45.2136	4.88396e-05	3.41135e-05	3.88764e-05	9.32103e-06	4.97951e-05	6.18302e-05	0.404263	0.130874	5.90362	9.01304e-07	7.19325e-07	9.46078e-07	1.43789e-06	7.71093e-07	1.13817e-06	0.124245	0.0199837	0.125842	9.13725	200.692	1247.77	1263.8	-80.8627	0.0000000E+000	0.0000000E+000	0.0000000E+000	80.8627	0.0000000E+000	0.0000000E+000	0.0000000E+000	-80.8627	0.0000000E+000	0.0000000E+000	0.0000000E+000	-9.13725	0.0000000E+000	0.0000000E+000	0.0000000E+000	9.13725	6.21732	80.8627	-1.98549e-06
10002.2	7.89144	1.73717	8.08038	-12.4147	398.488	0.448474	-0.00775525	9.1597	0.423352	1	38	0.00502525	0.000621908	0	-1.92714e-05	2.29522	1.56229	46.0326	4.72465e-05	5.57263e-05	3.97868e-05	4.52603e-05	2.83051e-05	3.97254e-05	0.256562	0.172509	6.09373	1.85556e-07	5.00933e-07	5.84375e-07	6.97361e-07	4.3607e-07	9.35333e-07	0.120863	0.0266059	0.123756	12.4147	423.352	1923.16	1969.21	-77.5853	0.0000000E+000	0.0000000E+000	0.0000000E+000	77.5853	0.0000000E+000	0.0000000E+000	0.0000000E+000	-77.5853	0.0000000E+000	0.0000000E+000	0.0000000E+000	-12.4147	0.0000000E+000	0.0000000E+000	0.0000000E+000	12.4147	4.5427	77.5853	-2.86724e-06
6307.74	8.16856	2.48061	8.53691	-16.8924	400.237	0.448326	-0.00814812	10.1716	0.858823	1	38	0.00506524	0.000593334	0	-2.35677e-05	2.09766	1.9488	45.0921	2.80773e-05	7.10454e-05	4.56328e-05	3.44463e-05	3.1961e-05	3.05524e-05	0.357539	0.314323	6.45315	4.16636e-07	1.40843e-06	9.13509e-08	7.50059e-07	7.09282e-07	8.2274e-07	0.112084	0.0340375	0.117138	16.8924	858.823	2828.08	2955.6	-73.1076	0.0000000E+000	0.0000000E+000	0.0000000E+000	73.1076	0.0000000E+000	0.0000000E+000	0.0000000E+000	-73.1076	0.0000000E+000	0.0000000E+000	0.0000000E+000	-16.8924	0.0000000E+000	0.0000000E+000	0.0000000E+000	16.8924	3.29297	73.1076	-1.67852e-06
[...]
631.01	10.2145	19.5047	22.0175	-62.3592	408.128	0.448456	-0.00126456	12.9314	10.1482	1	38	0.00466767	0.000211999	0	-3.72422e-05	2.10294	1.26782	50.6576	5.50729e-05	3.77277e-05	4.94125e-05	2.32364e-05	5.36524e-06	3.32605e-05	0.887674	0.437324	17.7416	6.25023e-07	1.24362e-06	5.62629e-07	7.11449e-07	3.80431e-07	5.22992e-07	0.0210709	0.0402351	0.0454185	62.3592	10148.2	5314.55	11455.6	-27.6408	0.0000000E+000	0.0000000E+000	0.0000000E+000	27.6408	0.0000000E+000	0.0000000E+000	0.0000000E+000	-27.6408	0.0000000E+000	0.0000000E+000	0.0000000E+000	-62.3592	0.0000000E+000	0.0000000E+000	0.0000000E+000	62.3592	0.523694	27.6408	-6.24756e-07
398.089	11.3746	29.9912	32.0757	-69.23	409.871	0.448346	-0.000594763	13.3305	11.6542	1	39	0.00480609	0.000149836	0	-3.83355e-05	2.56548	0.93065	47.6598	6.96678e-05	4.58785e-05	4.49487e-05	3.67361e-05	4.59564e-05	3.61414e-05	0.942322	0.446669	12.959	4.61572e-07	8.04778e-07	5.13882e-07	7.16907e-07	2.55683e-07	1.45214e-07	0.0110556	0.0291502	0.0311762	69.23	11654.2	4420.01	12464.2	-20.77	0.0000000E+000	0.0000000E+000	0.0000000E+000	20.77	0.0000000E+000	0.0000000E+000	0.0000000E+000	-20.77	0.0000000E+000	0.0000000E+000	0.0000000E+000	-69.23	0.0000000E+000	0.0000000E+000	0.0000000E+000	69.23	0.379265	20.77	-4.92875e-07
251.206	12.838	46.7592	48.4895	-74.6474	411.356	0.44839	-0.000216601	13.5495	12.5997	1	39	0.00473265	9.76014e-05	0	-3.85642e-05	1.64506	1.0904	47.0065	6.27117e-05	2.93329e-05	1.86261e-05	2.18273e-05	1.09982e-05	5.44977e-06	1.02476	0.63895	19.7169	6.77284e-07	1.40656e-07	2.99974e-07	4.86623e-07	2.22597e-07	2.04703e-07	0.00546012	0.0198871	0.020623	74.6474	12599.7	3459.34	13066	-15.3526	0.0000000E+000	0.0000000E+000	0.0000000E+000	15.3526	0.0000000E+000	0.0000000E+000	0.0000000E+000	-15.3526	0.0000000E+000	0.0000000E+000	0.0000000E+000	-74.6474	0.0000000E+000	0.0000000E+000	0.0000000E+000	74.6474	0.274556	15.3526	-4.00777e-08
158.529	16.1872	71.3259	73.1397	-77.2135	412.849	0.448387	-0.00017243	14.0755	13.3861	1	39	0.00466059	6.37217e-05	0	-3.87799e-05	2.26145	2.13425	49.121	6.95086e-05	1.67614e-05	2.0042e-05	5.49133e-05	3.00721e-05	3.08283e-05	1.9295	0.923725	29.3744	5.4614e-07	3.591e-07	1.53762e-07	6.41143e-07	5.75115e-07	3.13484e-07	0.00302598	0.0133334	0.0136725	77.2135	13386.1	3037.93	13726.5	-12.7865	0.0000000E+000	0.0000000E+000	0.0000000E+000	12.7865	0.0000000E+000	0.0000000E+000	0.0000000E+000	-12.7865	0.0000000E+000	0.0000000E+000	0.0000000E+000	-77.2135	0.0000000E+000	0.0000000E+000	0.0000000E+000	77.2135	0.226947	12.7865	-2.99797e-08
99.9682	20.7992	110.964	112.897	-79.3837	414.321	0.448417	-0.000454422	14.3474	13.8605	1	39	0.00465335	4.12177e-05	0	-3.88245e-05	1.99031	1.5824	47.4647	1.53874e-05	2.73303e-05	4.09239e-05	4.66192e-05	3.61877e-05	4.59731e-05	2.21697	1.77206	46.7887	4.29885e-07	5.71132e-07	3.42726e-07	2.80548e-07	1.74126e-07	1.68435e-07	0.00163186	0.00870602	0.00885764	79.3837	13860.5	2598.01	14101.9	-10.6163	0.0000000E+000	0.0000000E+000	0.0000000E+000	10.6163	0.0000000E+000	0.0000000E+000	0.0000000E+000	-10.6163	0.0000000E+000	0.0000000E+000	0.0000000E+000	-79.3837	0.0000000E+000	0.0000000E+000	0.0000000E+000	79.3837	0.18744	10.6163	-3.29525e-08

File: 240313-CVEIS_Activation-0p5H2SO4-Ag_AgCl_BLF8-Au_RDE-80cycles_06_PEIS_C15.mpt
EC-Lab ASCII FILE
Nb header lines : 66

Potentio Electrochemical Impedance Spectroscopy

Run on channel : 15 (SN 19485)
User :
Electrode connection : standard
Potential control : Ewe
Ewe ctrl range : min = -2.50 V, max = 2.50 V
Ewe,I filtering : 50 kHz
Safety Limits :
	Do not start on E overload
Channel : Floating
Acquisition started on : 03/13/2024 15:25:11.595
Loaded Setting File :  C:\Data\mathias\GoldElectrode\240308-CVEIS_Activation-0p5H2SO4-Ag_AgCl_BLF8-Au_RDE-80cycles-C15.mps
Saved on :
	File : 240313-CVEIS_Activation-0p5H2SO4-Ag_AgCl_BLF8-Au_RDE-80cycles_06_PEIS_C15.mpr
	Directory : C:\Data\mathias\GoldElectrode\
	Host : 192.168.0.1
Device : VMP-300 (SN 0826)
Address : USB
EC-Lab for windows v11.52 (software)
Internet server v11.52 (firmware)
Command interpretor v11.52 (firmware)
Electrode material :
Initial state :
Electrolyte :
Comments :
Cable : special
Electrode surface area : 0.001 cm²
Characteristic mass : 0.001 g
Equivalent Weight : 0.000 g/eq.
Density : 0.000 g/cm3
Volume (V) : 0.001 cm³
Record EIS quality indicators
Cycle Definition : Charge/Discharge alternance
Mode                Single sine
E (V)               0.0000
vs.                 Eoc
tE (h:m:s)          0:00:0.0000
record              0
dI                  0.000
unit dI             mA
dt (s)              0.000
fi                  100.000
unit fi             kHz
ff                  100.000
unit ff             Hz
Nd                  10
Points              per decade
spacing             Logarithmic
Va (mV)             5.0
pw                  0.10
Na                  2
corr                0
E range min (V)     -2.500
E range max (V)     2.500
I Range             Auto
Bandwidth           8
nc cycles           0
goto Ns'            0
nr cycles           0
inc. cycle          0

freq/Hz	Re(Z)/Ohm	-Im(Z)/Ohm	|Z|/Ohm	Phase(Z)/deg	time/s	<Ewe>/V	<I>/mA	Cs/µF	Cp/µF	cycle number	I Range	|Ewe|/V	|I|/A	Ns	(Q-Qo)/mA.h	THD Ewe/%	NSD Ewe/%	NSR Ewe/%	|Ewe h2|/V	|Ewe h3|/V	|Ewe h4|/V	|Ewe h5|/V	|Ewe h6|/V	|Ewe h7|/V	THD I/%	NSD I/%	NSR I/%	|I h2|/A	|I h3|/A	|I h4|/A	|I h5|/A	|I h6|/A	|I h7|/A	Re(Y)/Ohm-1	Im(Y)/Ohm-1	|Y|/Ohm-1	Phase(Y)/deg	Re(C)/nF	Im(C)/nF	|C|/nF	Phase(C)/deg	Re(M)	Im(M)	|M|	Phase(M)/deg	Re(Permittivity)	Im(Permittivity)	|Permittivity|	Phase(Permittivity)/deg	Re(Resistivity)/Ohm.cm	Im(Resistivity)/Ohm.cm	|Resistivity|/Ohm.cm	Phase(Resistivity)/deg	Re(Conductivity)/mS/cm	Im(Conductivity)/mS/cm	|Conductivity|/mS/cm	Phase(Conductivity)/deg	Tan(Delta)	Loss Angle(Delta)/deg	dq/mA.h
100004	7.39845	0.676787	7.42934	-5.2267	777.143	0.448502	-0.0196047	2.35154	0.0195144	1	38	0.00486722	0.000655135	0	-4.87621e-06	2.54977	1.33443	47.7577	6.82098e-05	4.94379e-05	5.88366e-05	5.14066e-05	2.71834e-05	2.34089e-05	0.298789	0.162369	5.70739	1.3161e-06	6.60658e-07	1.00317e-06	3.5816e-07	4.11566e-07	3.62694e-07	0.134042	0.0122617	0.134602	5.2267	19.5145	213.326	214.217	-84.7733	0.0000000E+000	0.0000000E+000	0.0000000E+000	84.7733	0.0000000E+000	0.0000000E+000	0.0000000E+000	-84.7733	0.0000000E+000	0.0000000E+000	0.0000000E+000	-5.2267	0.0000000E+000	0.0000000E+000	0.0000000E+000	5.2267	10.9317	84.7733	-4.87621e-06
63093.8	7.47382	0.686966	7.50532	-5.25166	778.771	0.448497	-0.0106115	3.67196	0.0307631	1	38	0.00515554	0.000686918	0	-9.42133e-06	4.08094	1.85021	45.4233	0.00018036	4.46064e-05	6.47131e-05	5.67663e-05	4.11527e-05	1.28086e-05	0.40854	0.149083	5.65296	1.94783e-06	1.05918e-06	9.80543e-07	2.6618e-07	9.03997e-07	9.15318e-07	0.132679	0.0121954	0.133239	5.25166	30.7631	334.686	336.096	-84.7483	0.0000000E+000	0.0000000E+000	0.0000000E+000	84.7483	0.0000000E+000	0.0000000E+000	0.0000000E+000	-84.7483	0.0000000E+000	0.0000000E+000	0.0000000E+000	-5.25166	0.0000000E+000	0.0000000E+000	0.0000000E+000	5.25166	10.8795	84.7483	-3.27635e-06
39814.1	7.54288	0.599126	7.56664	-4.54143	780.399	0.448431	-0.00962463	6.67215	0.0418307	1	38	0.00514559	0.000680036	0	-1.26265e-05	2.18038	1.25102	44.1983	5.28525e-05	3.96678e-05	4.66773e-05	4.11388e-05	3.59639e-05	4.65453e-05	0.292211	0.125804	5.56842	7.65921e-07	8.99204e-07	9.85497e-07	5.83261e-07	1.95735e-07	9.92178e-07	0.131744	0.0104643	0.132159	4.54143	41.8307	526.641	528.3	-85.4586	0.0000000E+000	0.0000000E+000	0.0000000E+000	85.4586	0.0000000E+000	0.0000000E+000	0.0000000E+000	-85.4586	0.0000000E+000	0.0000000E+000	0.0000000E+000	-4.54143	0.0000000E+000	0.0000000E+000	0.0000000E+000	4.54143	12.5898	85.4586	-1.5625e-06
25116.9	7.60661	0.74069	7.64258	-5.56162	782.028	0.448456	-0.0091126	8.55495	0.0803545	1	38	0.00513121	0.000671398	0	-1.89171e-05	2.20226	2.6498	46.8348	4.40265e-05	2.18954e-05	5.53973e-05	4.76734e-05	5.57022e-05	3.99097e-05	0.388086	0.314346	5.73261	7.92992e-07	1.12995e-06	6.62706e-07	9.6231e-07	7.36519e-07	1.5839e-06	0.13023	0.0126811	0.130846	5.56162	80.3545	825.21	829.113	-84.4384	0.0000000E+000	0.0000000E+000	0.0000000E+000	84.4384	0.0000000E+000	0.0000000E+000	0.0000000E+000	-84.4384	0.0000000E+000	0.0000000E+000	0.0000000E+000	-5.56162	0.0000000E+000	0.0000000E+000	0.0000000E+000	5.56162	10.2696	84.4384	-3.05328e-06
15847.7	7.70847	0.96547	7.76869	-7.139	783.656	0.44845	-0.00901764	10.402	0.160656	1	38	0.0051738	0.000665981	0	-2.26416e-05	2.39438	0.91791	45.554	1.18997e-05	4.97893e-05	5.02143e-05	7.59656e-05	4.15137e-05	3.76165e-05	0.336872	0.18294	5.74142	8.62481e-07	4.00608e-07	6.33668e-07	5.07988e-07	4.4616e-07	1.67005e-06	0.127724	0.0159972	0.128722	7.139	160.656	1282.7	1292.73	-82.861	0.0000000E+000	0.0000000E+000	0.0000000E+000	82.861	0.0000000E+000	0.0000000E+000	0.0000000E+000	-82.861	0.0000000E+000	0.0000000E+000	0.0000000E+000	-7.139	0.0000000E+000	0.0000000E+000	0.0000000E+000	7.139	7.98416	82.861	-1.48808e-06
10002.2	7.81208	1.2777	7.91588	-9.28872	785.285	0.44847	-0.00842182	12.4536	0.324454	1	38	0.00511247	0.00064585	0	-2.76918e-05	1.56377	1.52078	46.3458	3.3741e-05	2.48934e-05	4.22206e-05	3.07698e-05	3.68285e-05	1.40599e-05	0.231798	0.180748	5.84367	2.952e-07	7.82503e-07	5.22232e-07	4.13284e-07	6.0385e-07	7.91024e-07	0.124672	0.0203906	0.126328	9.28872	324.454	1983.77	2010.13	-80.7113	0.0000000E+000	0.0000000E+000	0.0000000E+000	80.7113	0.0000000E+000	0.0000000E+000	0.0000000E+000	-80.7113	0.0000000E+000	0.0000000E+000	0.0000000E+000	-9.28872	0.0000000E+000	0.0000000E+000	0.0000000E+000	9.28872	6.11419	80.7113	-2.38294e-06
6307.74	7.95042	1.92479	8.1801	-13.6094	787.033	0.448361	-0.00817419	13.1088	0.725794	1	38	0.00504175	0.000616343	0	-3.26828e-05	3.62153	1.57076	46.7272	6.78875e-05	0.000113744	7.61235e-05	5.08928e-05	4.51042e-05	6.94655e-05	0.428962	0.142802	6.26581	1.03699e-06	1.56302e-06	8.5446e-07	1.19907e-06	6.34372e-07	4.38584e-07	0.118816	0.0287651	0.122248	13.6094	725.794	2997.92	3084.52	-76.3906	0.0000000E+000	0.0000000E+000	0.0000000E+000	76.3906	0.0000000E+000	0.0000000E+000	0.0000000E+000	-76.3906	0.0000000E+000	0.0000000E+000	0.0000000E+000	-13.6094	0.0000000E+000	0.0000000E+000	0.0000000E+000	13.6094	4.13054	76.3906	-3.11835e-06
[...]
631.01	8.98455	15.4652	17.8856	-59.8455	794.701	0.448368	-0.00545763	16.309	12.1936	1	38	0.00515866	0.000288425	0	-4.75738e-05	2.51285	1.20289	45.1092	5.65182e-05	5.7163e-05	2.63824e-05	6.7266e-05	2.99627e-05	5.69596e-05	0.839159	0.315134	13.3846	8.48485e-07	7.79494e-07	5.40248e-07	1.01309e-06	8.01723e-07	1.27693e-06	0.0280859	0.0483447	0.0559109	59.8455	12193.6	7083.91	14102	-30.1545	0.0000000E+000	0.0000000E+000	0.0000000E+000	30.1545	0.0000000E+000	0.0000000E+000	0.0000000E+000	-30.1545	0.0000000E+000	0.0000000E+000	0.0000000E+000	-59.8455	0.0000000E+000	0.0000000E+000	0.0000000E+000	59.8455	0.580952	30.1545	-1.18706e-06
398.089	9.46695	24.0894	25.8828	-68.5455	796.189	0.44835	-0.00504801	16.5964	14.3761	1	38	0.00512896	0.000198161	0	-4.93356e-05	2.12734	0.703166	43.136	2.49966e-05	1.36003e-05	6.06528e-05	3.16012e-05	2.41407e-05	7.19957e-05	1.21472	0.647218	19.5741	1.72492e-06	5.4698e-07	5.3532e-07	1.08692e-06	6.86444e-07	6.79306e-07	0.0141314	0.0359585	0.0386357	68.5455	14376.1	5649.71	15446.4	-21.4545	0.0000000E+000	0.0000000E+000	0.0000000E+000	21.4545	0.0000000E+000	0.0000000E+000	0.0000000E+000	-21.4545	0.0000000E+000	0.0000000E+000	0.0000000E+000	-68.5455	0.0000000E+000	0.0000000E+000	0.0000000E+000	68.5455	0.392993	21.4545	-8.88986e-07
251.206	10.7026	37.3527	38.8558	-74.0115	797.926	0.448361	-0.000329173	16.9617	15.6748	1	39	0.00518476	0.000133436	0	-4.97049e-05	1.8574	1.41908	44.439	4.40134e-05	2.8471e-05	3.13092e-05	1.62063e-05	4.64484e-05	4.57516e-05	0.718601	0.486324	14.4939	3.45592e-07	4.31897e-07	2.00388e-07	4.68435e-07	3.23344e-07	4.20043e-07	0.00708891	0.0247407	0.0257362	74.0115	15674.8	4491.28	16305.5	-15.9885	0.0000000E+000	0.0000000E+000	0.0000000E+000	15.9885	0.0000000E+000	0.0000000E+000	0.0000000E+000	-15.9885	0.0000000E+000	0.0000000E+000	0.0000000E+000	-74.0115	0.0000000E+000	0.0000000E+000	0.0000000E+000	74.0115	0.286529	15.9885	-7.40518e-08
158.529	12.068	57.821	59.067	-78.2108	799.419	0.448395	-0.000512758	17.363	16.6383	1	39	0.00510739	8.64679e-05	0	-4.97645e-05	2.04847	0.889995	44.9896	2.81022e-05	4.54968e-05	4.11135e-05	5.87283e-05	2.8338e-05	2.93658e-05	1.08685	0.551651	22.7443	3.53517e-07	5.55182e-07	2.50563e-07	3.75591e-07	3.53724e-07	2.92229e-07	0.00345897	0.0165728	0.0169299	78.2108	16638.3	3472.63	16996.8	-11.7892	0.0000000E+000	0.0000000E+000	0.0000000E+000	11.7892	0.0000000E+000	0.0000000E+000	0.0000000E+000	-11.7892	0.0000000E+000	0.0000000E+000	0.0000000E+000	-78.2108	0.0000000E+000	0.0000000E+000	0.0000000E+000	78.2108	0.208714	11.7892	-1.16123e-07
99.9682	14.7705	89.4651	90.6761	-80.6252	800.891	0.448411	-0.000283512	17.7953	17.3231	1	39	0.00505473	5.57448e-05	0	-5.00076e-05	2.25941	1.5034	45.927	3.59929e-05	3.94872e-05	4.10841e-05	1.88709e-05	6.31174e-05	5.17948e-05	1.35324	0.377436	33.7013	1.34138e-07	2.22516e-07	4.10857e-07	2.44952e-07	2.94103e-07	3.47003e-07	0.00179642	0.010881	0.0110283	80.6252	17323.1	2860.01	17557.6	-9.37484	0.0000000E+000	0.0000000E+000	0.0000000E+000	9.37484	0.0000000E+000	0.0000000E+000	0.0000000E+000	-9.37484	0.0000000E+000	0.0000000E+000	0.0000000E+000	-80.6252	0.0000000E+000	0.0000000E+000	0.0000000E+000	80.6252	0.165098	9.37485	-9.49859e-08