Folder: Thesis/Python/Data/GoldElectrode/240313

File: 240313-CVEIS_Activation-0p5H2SO4-Ag_AgCl_BLF8-Au_RDE-80cycles_01_CV_C15.mpt
EC-Lab ASCII FILE
Nb header lines : 60

Cyclic Voltammetry

Run on channel : 15 (SN 19485)
User :
Electrode connection : standard
Potential control : Ewe
Ewe ctrl range : min = -2.50 V, max = 2.50 V
Ewe,I filtering : 50 kHz
Safety Limits :
	Do not start on E overload
Channel : Floating
Acquisition started on : 03/13/2024 15:25:11.595
Loaded Setting File :  C:\Data\mathias\GoldElectrode\240308-CVEIS_Activation-0p5H2SO4-Ag_AgCl_BLF8-Au_RDE-80cycles-C15.mps
Saved on :
	File : 240313-CVEIS_Activation-0p5H2SO4-Ag_AgCl_BLF8-Au_RDE-80cycles_01_CV_C15.mpr
	Directory : C:\Data\mathias\GoldElectrode\
	Host : 192.168.0.1
Device : VMP-300 (SN 0826)
Address : USB
EC-Lab for windows v11.52 (software)
Internet server v11.52 (firmware)
Command interpretor v11.52 (firmware)
Electrode material :
Initial state :
Electrolyte :
Comments :
Cable : special
Electrode surface area : 0.001 cm²
Characteristic mass : 0.001 g
Equivalent Weight : 0.000 g/eq.
Density : 0.000 g/cm3
Volume (V) : 0.001 cm³
Record EIS quality indicators
Cycle Definition : Charge/Discharge alternance
Ei (V)              0.000
vs.                 Eoc
dE/dt               200.000
dE/dt unit          mV/s
E1 (V)              1.500
vs.                 Ref
Step percent        50
N                   10
E range min (V)     -2.500
E range max (V)     2.500
I Range             Auto
I Range min         Unset
I Range max         Unset
I Range init        Unset
Bandwidth           8
E2 (V)              -0.300
vs.                 Ref
nc cycles           0
Reverse Scan        1
Ef (V)              0.000
vs.                 Eoc

mode	ox/red	error	control changes	counter inc.	time/s	control/V	Ewe/V	<I>/mA	cycle number	(Q-Qo)/C	I Range	step time/s	P/W
2	1	1	0	0	0.000000000000000E+000	0.448618	0.448301	3.97203e-06	1	0.0000000E+000	45	0.000000000000000E+000	1.78066e-09
2	1	0	1	0	0.1827	0.485149	0.484897	0.00238444	1	3.35917e-07	42	0.1625	1.15621e-06
2	1	0	1	0	0.3326	0.515134	0.514886	0.00281826	1	7.22412e-07	42	0.3124	1.45108e-06
2	1	0	1	0	0.4825	0.545118	0.544837	0.00326764	1	1.17452e-06	42	0.4623	1.78033e-06
2	1	0	1	0	0.6324	0.575103	0.574851	0.00383707	1	1.70125e-06	42	0.6122	2.20574e-06
2	1	0	1	0	0.7824	0.605088	0.604832	0.00448523	1	2.31771e-06	42	0.7622	2.71281e-06
2	1	0	1	0	0.9323	0.635073	0.634809	0.00528806	1	3.04359e-06	42	0.9121	3.35691e-06
2	1	0	1	0	1.0822	0.665058	0.664794	0.00620068	1	3.89999e-06	42	1.062	4.12218e-06
2	1	0	1	0	1.2321	0.695042	0.694772	0.00717412	1	4.90056e-06	42	1.2119	4.98438e-06
2	1	0	1	0	1.382	0.725027	0.724749	0.00811513	1	6.0443e-06	42	1.3618	5.88143e-06
2	1	0	1	0	1.532	0.755012	0.754746	0.0088619	1	7.31674e-06	42	1.5118	6.68849e-06
2	1	0	1	0	1.6819	0.784997	0.784736	0.00946135	1	8.6919e-06	42	1.6617	7.42467e-06
2	1	0	1	0	1.8318	0.814982	0.814705	0.00997908	1	1.01488e-05	42	1.8116	8.13001e-06
2	1	0	1	0	1.9817	0.844966	0.844682	0.0103879	1	1.16744e-05	42	1.9615	8.7745e-06
2	1	0	1	0	2.1317	0.874951	0.874685	0.0108588	1	1.32668e-05	42	2.1115	9.49804e-06
2	1	0	1	0	2.3116	0.910933	0.910707	0.011569	1	1.528e-05	41	2.2914	1.05359e-05
2	1	0	1	0	2.4615	0.940918	0.940689	0.0123261	1	1.70697e-05	41	2.4413	1.1595e-05
2	1	0	1	0	2.6114	0.970902	0.970662	0.013133	1	1.89753e-05	41	2.5912	1.27477e-05
2	1	0	1	0	2.7613	1.00089	1.00063	0.014097	1	2.10097e-05	41	2.7411	1.41059e-05
2	1	0	1	0	2.9113	1.03087	1.03061	0.0153131	1	2.32044e-05	41	2.8911	1.57819e-05
2	1	0	1	0	3.0612	1.06086	1.06062	0.0170262	1	2.56144e-05	41	3.041	1.80583e-05
2	1	0	1	0	3.2111	1.09084	1.09061	0.019513	1	2.83375e-05	41	3.1909	2.1281e-05
2	1	0	1	0	3.361	1.12083	1.12057	0.0231517	1	3.15144e-05	41	3.3408	2.59432e-05
2	1	0	1	0	3.511	1.15081	1.15058	0.0295979	1	3.54174e-05	41	3.4908	3.40547e-05
2	1	0	1	0	3.6609	1.1808	1.18052	0.0427129	1	4.07253e-05	41	3.6407	5.04236e-05
2	1	0	1	0	3.8108	1.21078	1.2105	0.065957	1	4.87406e-05	41	3.7906	7.98407e-05
2	1	0	1	0	3.9607	1.24077	1.24049	0.0995934	1	6.10308e-05	41	3.9405	0.000123545
2	1	0	1	0	4.1406	1.27675	1.2765	0.149448	1	8.32234e-05	40	4.1204	0.00019077
2	1	0	1	0	4.2906	1.30673	1.30646	0.190405	1	0.000108776	40	4.2704	0.000248757
2	1	0	1	0	4.4405	1.33672	1.33647	0.225003	1	0.000140016	40	4.4203	0.000300709
2	1	0	1	0	4.5904	1.3667	1.36645	0.251747	1	0.00017586	40	4.5702	0.000344
2	1	0	1	0	4.7403	1.39669	1.39642	0.269376	1	0.00021504	40	4.7201	0.000376163
2	1	0	1	0	4.8903	1.42667	1.4264	0.27733	1	0.000256161	40	4.8701	0.000395583
2	1	0	1	0	5.0402	1.45666	1.4564	0.277191	1	0.000297826	40	5.02	0.000403701
2	1	0	1	0	5.1901	1.48664	1.48638	0.271974	1	0.000339029	40	5.1699	0.000404257
2	1	0	1	0	5.3301	1.48534	1.48503	0.172648	1	0.000372746	40	5.3099	0.000256388
2	1	0	1	0	5.48	1.45536	1.45506	0.0834205	1	0.000390908	40	5.4598	0.000121382
2	1	0	1	0	5.6299	1.42537	1.42506	0.0444862	1	0.000400141	40	5.6097	6.33954e-05
2	1	0	1	0	5.8098	1.38939	1.38907	0.0218814	1	0.000405964	41	5.7896	3.03948e-05
2	1	0	1	0	5.9598	1.35941	1.35912	0.0120323	1	0.000408445	41	5.9396	1.63533e-05
2	1	0	1	0	6.1097	1.32942	1.32911	0.00608086	1	0.000409772	41	6.0895	8.08215e-06
2	1	0	1	0	6.2596	1.29944	1.29914	0.00232397	1	0.000410385	41	6.2394	3.01917e-06
2	0	0	1	0	6.4395	1.26345	1.26316	-0.000732997	1	0.000410514	42	0.045	-9.25896e-07
2	0	0	1	0	6.5894	1.23347	1.23321	-0.00275261	1	0.00041024	42	0.1949	-3.39454e-06
2	0	0	1	0	6.7394	1.20348	1.20321	-0.00464366	1	0.000409678	42	0.3449	-5.58732e-06
2	0	0	1	0	6.8893	1.1735	1.17324	-0.00677373	1	0.000408825	42	0.4948	-7.94724e-06
2	0	0	1	0	7.0392	1.14351	1.14326	-0.00926202	1	0.000407632	42	0.6447	-1.05889e-05
2	0	0	1	0	7.2191	1.10753	1.10724	-0.0135457	1	0.000405616	41	0.8246	-1.49984e-05
2	0	0	1	0	7.369	1.07755	1.07726	-0.0189478	1	0.000403208	41	0.9745	-2.04117e-05
2	0	0	1	0	7.519	1.04756	1.04729	-0.0272934	1	0.00039979	41	1.1245	-2.85842e-05
2	0	0	1	0	7.6689	1.01758	1.0173	-0.0410056	1	0.000394761	41	1.2744	-4.1715e-05
2	0	0	1	0	7.8188	0.987594	0.987325	-0.0648508	1	0.000386997	41	1.4243	-6.40288e-05
2	0	0	1	0	7.9837	0.954611	0.954324	-0.115758	1	0.000372633	41	1.5892	-0.00011047
2	0	0	1	0	8.1486	0.921641	0.921357	-0.211037	1	0.000346563	40	1.7541	-0.000194441
2	0	0	1	0	8.2986	0.891643	0.891369	-0.311184	1	0.000306901	40	1.9041	-0.00027738
2	0	0	1	0	8.4485	0.861658	0.861388	-0.312475	1	0.000258459	40	2.054	-0.000269162
2	0	0	1	0	8.5984	0.831673	0.831382	-0.224552	1	0.000217838	40	2.2039	-0.000186688
2	0	0	1	0	8.7483	0.801688	0.801392	-0.144633	1	0.000190574	40	2.3538	-0.000115908
2	0	0	1	0	8.8983	0.771703	0.771405	-0.093587	1	0.000173021	40	2.5038	-7.21934e-05
2	0	0	1	0	9.0482	0.741719	0.741423	-0.0622585	1	0.000161525	40	2.6537	-4.61599e-05
2	0	0	1	0	9.1981	0.711734	0.711437	-0.042972	1	0.000153759	40	2.8036	-3.05719e-05
2	0	0	1	0	9.378	0.675752	0.675459	-0.0298548	1	0.000147273	41	2.9835	-2.01657e-05
2	0	0	1	0	9.528	0.645758	0.645474	-0.0241066	1	0.000143269	41	3.1335	-1.55602e-05
2	0	0	1	0	9.6779	0.615783	0.6155	-0.020908	1	0.000139915	41	3.2834	-1.28689e-05
2	0	0	1	0	9.8278	0.585798	0.585499	-0.0192412	1	0.000136905	41	3.4333	-1.12657e-05
2	0	0	1	0	9.9777	0.555813	0.555521	-0.0179434	1	0.000134112	41	3.5832	-9.96794e-06
2	0	0	1	0	10.1276	0.525828	0.525524	-0.0164328	1	0.000131528	41	3.7331	-8.63581e-06
2	0	0	1	0	10.2776	0.495844	0.495543	-0.0149597	1	0.000129178	41	3.8831	-7.4132e-06
2	0	0	1	0	10.4275	0.465859	0.465576	-0.0139931	1	0.000127015	41	4.033	-6.51485e-06
[...]
2	0	0	1	0	11.7768	0.195996	0.195719	-0.0119219	1	0.000110428	41	5.3823	-2.33334e-06
2	0	0	1	0	11.9267	0.166011	0.165733	-0.0122085	1	0.000108623	41	5.5322	-2.02334e-06
2	0	0	1	0	12.0767	0.136026	0.135714	-0.0125021	1	0.00010677	41	5.6822	-1.69671e-06
2	0	0	1	0	12.2266	0.106041	0.105758	-0.012825	1	0.000104873	41	5.8321	-1.35635e-06
2	0	0	1	0	12.3765	0.0760566	0.0757392	-0.0133569	1	0.000102917	41	5.982	-1.01165e-06
2	0	0	1	0	12.5264	0.0460718	0.0457597	-0.0142198	1	0.000100859	41	6.1319	-6.50693e-07
2	0	0	1	0	12.6764	0.0160871	0.0158011	-0.0155732	1	9.86347e-05	41	6.2819	-2.46073e-07
2	0	0	1	0	12.8263	-0.0138977	-0.0142066	-0.0175558	1	9.61595e-05	41	6.4318	2.49407e-07
2	0	0	1	0	12.9762	-0.0438825	-0.044184	-0.0200896	1	9.33415e-05	41	6.5817	8.87638e-07
2	0	0	1	0	13.1261	-0.0738673	-0.0741625	-0.0225551	1	9.01395e-05	41	6.7316	1.67275e-06
2	0	0	1	0	13.276	-0.103852	-0.104155	-0.0242048	1	8.66251e-05	41	6.8815	2.52104e-06
2	0	0	1	0	13.426	-0.133837	-0.13411	-0.0244855	1	8.29633e-05	41	7.0315	3.28374e-06
2	0	0	1	0	13.5759	-0.163822	-0.164096	-0.0239808	1	7.93229e-05	41	7.1814	3.93515e-06
2	0	0	1	0	13.7258	-0.193807	-0.194101	-0.0231576	1	7.57884e-05	41	7.3313	4.49491e-06
2	0	0	1	0	13.8757	-0.223791	-0.224094	-0.0224211	1	7.23737e-05	41	7.4812	5.02443e-06
2	0	0	1	0	14.0257	-0.253776	-0.254088	-0.0219703	1	6.90485e-05	41	7.6312	5.58238e-06
2	0	0	1	0	14.1756	-0.283761	-0.284061	-0.0218926	1	6.57662e-05	41	7.7811	6.21885e-06
2	0	0	1	1	14.3151	-0.288359	-0.288615	-0.0140996	1	6.30439e-05	41	7.9206	4.06934e-06
2	0	0	1	1	14.465	-0.258374	-0.258633	-0.00939276	1	6.13308e-05	41	8.0705	2.42928e-06
2	0	0	1	1	14.615	-0.228389	-0.228645	-0.00708337	1	6.01063e-05	41	8.2205	1.61958e-06
2	0	0	1	1	14.7649	-0.198404	-0.198657	-0.00547786	1	5.91693e-05	41	8.3704	1.08822e-06
2	0	0	1	1	14.9148	-0.168419	-0.168657	-0.00419632	1	5.84448e-05	41	8.5203	7.07739e-07
2	0	0	1	1	15.0947	-0.132438	-0.132704	-0.00282012	1	5.78115e-05	42	8.7002	3.74242e-07
2	0	0	1	1	15.2446	-0.102453	-0.102697	-0.00157724	1	5.74844e-05	42	8.8501	1.61977e-07
2	0	0	1	1	15.3946	-0.072468	-0.0727118	-0.000382335	1	5.73395e-05	42	9.0001	2.78003e-08
2	1	0	1	1	15.5445	-0.0424832	-0.0427301	0.000895832	1	5.73829e-05	42	0.105	-3.8279e-08
2	1	0	1	1	15.6944	-0.0124984	-0.0127465	0.00215912	1	5.76178e-05	42	0.2549	-2.75211e-08
2	1	0	1	1	15.8443	0.0174863	0.017236	0.00340524	1	5.80399e-05	42	0.4048	5.86927e-08
2	1	0	1	1	15.9943	0.0474711	0.04722	0.0044783	1	5.86359e-05	42	0.5548	2.11465e-07
2	1	0	1	1	16.1442	0.0774559	0.0772334	0.00537858	1	5.93815e-05	42	0.7047	4.15406e-07
2	1	0	1	1	16.2941	0.107441	0.107196	0.00604405	1	6.02448e-05	42	0.8546	6.47898e-07
2	1	0	1	1	16.444	0.137425	0.137197	0.00653895	1	6.11933e-05	42	1.0045	8.97123e-07
2	1	0	1	1	16.594	0.16741	0.167173	0.00689247	1	6.22021e-05	42	1.1545	1.15224e-06
2	1	0	1	1	16.7439	0.197395	0.197155	0.00712596	1	6.3252e-05	42	1.3044	1.40491e-06
2	1	0	1	1	16.8938	0.22738	0.227145	0.00733112	1	6.43332e-05	42	1.4543	1.66522e-06
2	1	0	1	1	17.0437	0.257365	0.257124	0.00750016	1	6.54414e-05	42	1.6042	1.92848e-06
2	1	0	1	1	17.1937	0.287349	0.287104	0.00769602	1	6.65775e-05	42	1.7542	2.20956e-06
2	1	0	1	1	17.3436	0.317334	0.317071	0.00789861	1	6.77438e-05	42	1.9041	2.50442e-06
2	1	0	1	1	17.4935	0.347319	0.347073	0.00819805	1	6.89482e-05	42	2.054	2.84532e-06
2	1	0	1	1	17.6434	0.377304	0.377055	0.0085549	1	7.02003e-05	42	2.2039	3.22567e-06
2	1	0	1	1	17.7934	0.407288	0.407026	0.00899641	1	7.151e-05	42	2.3539	3.66177e-06
2	1	0	1	1	17.9433	0.437273	0.437012	0.00942549	1	7.2886e-05	42	2.5038	4.11905e-06
2	1	0	1	1	17.9998	0.448618	0.448271	0.00960761	1	7.34244e-05	42	2.5603	4.30681e-06

File: 240313-CVEIS_Activation-0p5H2SO4-Ag_AgCl_BLF8-Au_RDE-80cycles_02_PEIS_C15.mpt
EC-Lab ASCII FILE
Nb header lines : 66

Potentio Electrochemical Impedance Spectroscopy

Run on channel : 15 (SN 19485)
User :
Electrode connection : standard
Potential control : Ewe
Ewe ctrl range : min = -2.50 V, max = 2.50 V
Ewe,I filtering : 50 kHz
Safety Limits :
	Do not start on E overload
Channel : Floating
Acquisition started on : 03/13/2024 15:25:11.595
Loaded Setting File :  C:\Data\mathias\GoldElectrode\240308-CVEIS_Activation-0p5H2SO4-Ag_AgCl_BLF8-Au_RDE-80cycles-C15.mps
Saved on :
	File : 240313-CVEIS_Activation-0p5H2SO4-Ag_AgCl_BLF8-Au_RDE-80cycles_02_PEIS_C15.mpr
	Directory : C:\Data\mathias\GoldElectrode\
	Host : 192.168.0.1
Device : VMP-300 (SN 0826)
Address : USB
EC-Lab for windows v11.52 (software)
Internet server v11.52 (firmware)
Command interpretor v11.52 (firmware)
Electrode material :
Initial state :
Electrolyte :
Comments :
Cable : special
Electrode surface area : 0.001 cm²
Characteristic mass : 0.001 g
Equivalent Weight : 0.000 g/eq.
Density : 0.000 g/cm3
Volume (V) : 0.001 cm³
Record EIS quality indicators
Cycle Definition : Charge/Discharge alternance
Mode                Single sine
E (V)               0.0000
vs.                 Eoc
tE (h:m:s)          0:00:0.0000
record              0
dI                  0.000
unit dI             mA
dt (s)              0.000
fi                  100.000
unit fi             kHz
ff                  100.000
unit ff             Hz
Nd                  10
Points              per decade
spacing             Logarithmic
Va (mV)             5.0
pw                  0.10
Na                  2
corr                0
E range min (V)     -2.500
E range max (V)     2.500
I Range             Auto
Bandwidth           8
nc cycles           0
goto Ns'            0
nr cycles           0
inc. cycle          0

freq/Hz	Re(Z)/Ohm	-Im(Z)/Ohm	|Z|/Ohm	Phase(Z)/deg	time/s	<Ewe>/V	<I>/mA	Cs/µF	Cp/µF	cycle number	I Range	|Ewe|/V	|I|/A	Ns	(Q-Qo)/mA.h	THD Ewe/%	NSD Ewe/%	NSR Ewe/%	|Ewe h2|/V	|Ewe h3|/V	|Ewe h4|/V	|Ewe h5|/V	|Ewe h6|/V	|Ewe h7|/V	THD I/%	NSD I/%	NSR I/%	|I h2|/A	|I h3|/A	|I h4|/A	|I h5|/A	|I h6|/A	|I h7|/A	Re(Y)/Ohm-1	Im(Y)/Ohm-1	|Y|/Ohm-1	Phase(Y)/deg	Re(C)/nF	Im(C)/nF	|C|/nF	Phase(C)/deg	Re(M)	Im(M)	|M|	Phase(M)/deg	Re(Permittivity)	Im(Permittivity)	|Permittivity|	Phase(Permittivity)/deg	Re(Resistivity)/Ohm.cm	Im(Resistivity)/Ohm.cm	|Resistivity|/Ohm.cm	Phase(Resistivity)/deg	Re(Conductivity)/mS/cm	Im(Conductivity)/mS/cm	|Conductivity|/mS/cm	Phase(Conductivity)/deg	Tan(Delta)	Loss Angle(Delta)/deg	dq/mA.h
100004	7.64682	1.29382	7.75551	-9.60336	21.2149	0.448512	-0.0157244	1.23007	0.0342341	1	38	0.00488331	0.000629657	0	-4.0811e-06	2.60578	1.35035	47.696	5.88216e-05	5.13077e-05	6.25192e-05	3.67367e-05	3.65355e-05	2.38674e-05	0.275123	0.195426	5.97619	6.71481e-07	7.50139e-07	6.73759e-07	7.03545e-07	6.27512e-07	3.82427e-07	0.127134	0.0215107	0.128941	9.60336	34.2341	202.332	205.208	-80.3966	0.0000000E+000	0.0000000E+000	0.0000000E+000	80.3966	0.0000000E+000	0.0000000E+000	0.0000000E+000	-80.3966	0.0000000E+000	0.0000000E+000	0.0000000E+000	-9.60336	0.0000000E+000	0.0000000E+000	0.0000000E+000	9.60336	5.91025	80.3966	-4.0811e-06
63093.8	7.82342	1.31423	7.93304	-9.53586	22.8429	0.448512	-0.00737914	1.91939	0.0526774	1	38	0.00517153	0.000651898	0	-5.71589e-06	2.26041	1.83331	46.2795	3.60696e-05	3.91611e-05	4.87245e-05	5.04677e-05	3.5704e-05	5.49802e-05	0.297604	0.179372	5.80732	6.62042e-07	6.1417e-07	1.08288e-06	6.57196e-07	5.18614e-07	7.38871e-07	0.124313	0.0208829	0.126055	9.53586	52.6774	313.582	317.976	-80.4641	0.0000000E+000	0.0000000E+000	0.0000000E+000	80.4641	0.0000000E+000	0.0000000E+000	0.0000000E+000	-80.4641	0.0000000E+000	0.0000000E+000	0.0000000E+000	-9.53586	0.0000000E+000	0.0000000E+000	0.0000000E+000	9.53586	5.95287	80.4641	-4.06406e-07
39814.1	7.94655	1.82049	8.15241	-12.9033	24.4709	0.448475	-0.00726742	2.19582	0.109496	1	38	0.00515946	0.000632875	0	-9.43233e-06	2.16087	1.06464	45.8879	9.93988e-06	6.97089e-05	3.09484e-05	4.56731e-05	4.3355e-05	3.26761e-05	0.269881	0.148872	5.9121	2.97081e-07	8.27267e-07	1.03751e-06	4.37653e-07	8.285e-07	2.58117e-07	0.119566	0.0273915	0.122663	12.9033	109.496	477.958	490.34	-77.0967	0.0000000E+000	0.0000000E+000	0.0000000E+000	77.0967	0.0000000E+000	0.0000000E+000	0.0000000E+000	-77.0967	0.0000000E+000	0.0000000E+000	0.0000000E+000	-12.9033	0.0000000E+000	0.0000000E+000	0.0000000E+000	12.9033	4.36507	77.0967	-1.39407e-06
25116.9	8.28945	2.2683	8.5942	-15.3036	26.0989	0.448451	-0.00601993	2.79353	0.1946	1	38	0.00512241	0.000596032	0	-1.31831e-05	2.53517	2.56002	47.3336	7.89321e-05	4.08363e-05	3.66445e-05	3.82771e-05	1.35053e-05	6.1155e-05	0.296548	0.338349	6.47939	4.69009e-07	8.09829e-07	1.31641e-07	1.05777e-06	7.06356e-07	5.08529e-07	0.112232	0.0307107	0.116358	15.3036	194.6	711.163	737.308	-74.6964	0.0000000E+000	0.0000000E+000	0.0000000E+000	74.6964	0.0000000E+000	0.0000000E+000	0.0000000E+000	-74.6964	0.0000000E+000	0.0000000E+000	0.0000000E+000	-15.3036	0.0000000E+000	0.0000000E+000	0.0000000E+000	15.3036	3.65448	74.6964	-2.1518e-06
15847.7	8.53754	3.3777	9.18142	-21.5852	27.7269	0.448466	-0.00602738	2.97327	0.402397	1	38	0.00511651	0.000557267	0	-1.52959e-05	2.80527	0.925222	46.2809	5.8399e-05	1.80514e-05	4.5891e-05	3.70939e-05	6.11764e-05	8.98974e-05	0.475733	0.203287	6.74908	4.14289e-07	5.66269e-07	8.92395e-07	2.82676e-07	1.06977e-06	1.98263e-06	0.101278	0.0400683	0.108916	21.5852	402.397	1017.11	1093.82	-68.4148	0.0000000E+000	0.0000000E+000	0.0000000E+000	68.4148	0.0000000E+000	0.0000000E+000	0.0000000E+000	-68.4148	0.0000000E+000	0.0000000E+000	0.0000000E+000	-21.5852	0.0000000E+000	0.0000000E+000	0.0000000E+000	21.5852	2.52762	68.4148	-1.23462e-06
10002.2	8.88764	4.78525	10.094	-28.2987	29.3559	0.448509	-0.0058747	3.32521	0.747312	1	38	0.00508331	0.000503598	0	-1.74185e-05	2.19727	1.25039	45.6861	4.58235e-05	4.33403e-05	2.16048e-05	5.43595e-05	4.81304e-05	3.8028e-05	0.414252	0.25306	7.74814	8.12393e-07	1.26976e-06	4.82403e-07	6.06306e-07	8.53403e-07	7.4577e-07	0.0872289	0.0469654	0.0990688	28.2987	747.312	1387.98	1576.38	-61.7013	0.0000000E+000	0.0000000E+000	0.0000000E+000	61.7013	0.0000000E+000	0.0000000E+000	0.0000000E+000	-61.7013	0.0000000E+000	0.0000000E+000	0.0000000E+000	-28.2987	0.0000000E+000	0.0000000E+000	0.0000000E+000	28.2987	1.8573	61.7013	-8.52254e-07
6307.74	9.47737	6.96634	11.7622	-36.3178	30.92	0.448395	-0.00706075	3.62195	1.27049	1	38	0.00551157	0.000468582	0	-2.01223e-05	3.36053	1.21797	40.4485	3.23281e-05	0.000156421	3.98783e-05	3.72493e-05	6.56758e-05	1.17701e-05	0.789198	0.20075	7.66546	1.50624e-06	2.86121e-06	7.58024e-07	1.32136e-06	6.75655e-07	2.74068e-07	0.0685026	0.0503529	0.0850178	36.3178	1270.49	1728.44	2145.14	-53.6822	0.0000000E+000	0.0000000E+000	0.0000000E+000	53.6822	0.0000000E+000	0.0000000E+000	0.0000000E+000	-53.6822	0.0000000E+000	0.0000000E+000	0.0000000E+000	-36.3178	0.0000000E+000	0.0000000E+000	0.0000000E+000	36.3178	1.36045	53.6822	-1.55943e-06
[...]
631.01	21.2943	50.173	54.5049	-67.0028	38.8398	0.448373	-0.000503439	5.02706	4.25975	1	39	0.00485503	8.90751e-05	0	-2.88006e-05	3.87392	0.927998	47.7766	3.18373e-05	0.00015562	4.7349e-05	3.75942e-05	5.06777e-05	4.22738e-05	1.55207	0.491684	21.4379	2.83017e-07	9.09471e-07	2.81529e-07	3.66987e-07	6.12477e-07	5.11882e-07	0.00716791	0.0168888	0.018347	67.0028	4259.75	1807.91	4627.53	-22.9972	0.0000000E+000	0.0000000E+000	0.0000000E+000	22.9972	0.0000000E+000	0.0000000E+000	0.0000000E+000	-22.9972	0.0000000E+000	0.0000000E+000	0.0000000E+000	-67.0028	0.0000000E+000	0.0000000E+000	0.0000000E+000	67.0028	0.424417	22.9972	-1.28446e-09
398.089	29.2662	72.3381	78.034	-67.973	40.3281	0.448361	-8.14771e-05	5.52679	4.7494	1	39	0.00469078	6.0112e-05	0	-2.88746e-05	1.77697	1.75114	48.3088	3.37202e-05	3.33355e-05	3.57823e-05	1.76096e-05	4.30277e-05	3.28765e-05	1.51182	0.856448	31.2159	2.12221e-07	5.06891e-07	2.13976e-07	4.36132e-07	2.57752e-07	3.52383e-07	0.00480616	0.0118795	0.0128149	67.973	4749.4	1921.49	5123.37	-22.027	0.0000000E+000	0.0000000E+000	0.0000000E+000	22.027	0.0000000E+000	0.0000000E+000	0.0000000E+000	-22.027	0.0000000E+000	0.0000000E+000	0.0000000E+000	-67.973	0.0000000E+000	0.0000000E+000	0.0000000E+000	67.973	0.404575	22.027	-2.26794e-08
251.206	40.4313	106.379	113.803	-69.1898	41.8132	0.448372	-0.000299541	5.95571	5.20399	1	39	0.00467288	4.1061e-05	0	-2.89086e-05	2.82805	1.26848	45.9664	3.14474e-05	3.13071e-05	2.78616e-05	2.74609e-05	9.34172e-05	6.26324e-05	2.42423	2.13216	45.8232	1.56629e-07	4.20992e-07	2.39184e-07	5.82114e-07	4.47635e-07	3.47475e-07	0.00312182	0.00821383	0.00878708	69.1898	5203.99	1977.87	5567.17	-20.8102	0.0000000E+000	0.0000000E+000	0.0000000E+000	20.8102	0.0000000E+000	0.0000000E+000	0.0000000E+000	-20.8102	0.0000000E+000	0.0000000E+000	0.0000000E+000	-69.1898	0.0000000E+000	0.0000000E+000	0.0000000E+000	69.1898	0.380068	20.8102	-4.10309e-08
158.529	54.7935	154.174	163.621	-70.4348	43.307	0.448354	2.02851e-05	6.51179	5.78153	1	39	0.00464301	2.83766e-05	0	-2.8957e-05	1.92949	1.60746	49.3351	2.57351e-05	5.96871e-05	2.78238e-05	3.92369e-05	2.05985e-05	2.26422e-05	2.90006	2.68618	67.6356	2.98766e-07	3.31774e-07	4.38387e-07	3.35482e-07	2.32656e-07	1.56256e-07	0.00204667	0.00575879	0.00611167	70.4348	5781.53	2054.76	6135.8	-19.5652	0.0000000E+000	0.0000000E+000	0.0000000E+000	19.5652	0.0000000E+000	0.0000000E+000	0.0000000E+000	-19.5652	0.0000000E+000	0.0000000E+000	0.0000000E+000	-70.4348	0.0000000E+000	0.0000000E+000	0.0000000E+000	70.4348	0.3554	19.5652	-4.94361e-08
99.9682	79.9621	220.688	234.727	-70.083	45.0322	0.448416	-3.28975e-05	7.21407	6.37689	1	40	0.0046884	1.99738e-05	0	-2.90325e-05	2.76425	1.12199	70.7185	3.26065e-05	7.92173e-05	5.24431e-05	3.46316e-05	4.32091e-05	4.06389e-05	0.879202	0.403511	18.9226	6.12401e-08	4.83878e-08	4.23026e-08	8.9363e-08	8.29929e-08	7.19566e-08	0.0014513	0.00400544	0.00426026	70.083	6376.89	2310.55	6782.57	-19.917	0.0000000E+000	0.0000000E+000	0.0000000E+000	19.917	0.0000000E+000	0.0000000E+000	0.0000000E+000	-19.917	0.0000000E+000	0.0000000E+000	0.0000000E+000	-70.083	0.0000000E+000	0.0000000E+000	0.0000000E+000	70.083	0.362331	19.917	-3.45264e-08