Folder: Thesis/Python/Data/GoldElectrode/240313 (part 5)

File: 240313-CVEIS_PostActivation-Fe2Fe3_5mM-HCl1M-0225RPM-Ag_AgCl_BLF8-Au_RDE_01_CV_C15.mpt
EC-Lab ASCII FILE
Nb header lines : 60

Cyclic Voltammetry

Run on channel : 15 (SN 19485)
User :
Electrode connection : standard
Potential control : Ewe
Ewe ctrl range : min = -1.00 V, max = 1.00 V
Ewe,I filtering : <None>
Safety Limits :
	Do not start on E overload
Channel : Floating
Acquisition started on : 03/13/2024 17:04:56.446
Loaded Setting File :  NONE
Saved on :
	File : 240313-CVEIS_PostActivation-Fe2Fe3_5mM-HCl1M-225RPM-Ag_AgCl_BLF8-Au_RDE_01_CV_C15.mpr
	Directory : C:\Data\mathias\GoldElectrode\
	Host : 192.168.0.1
Device : VMP-300 (SN 0826)
Address : USB
EC-Lab for windows v11.52 (software)
Internet server v11.52 (firmware)
Command interpretor v11.52 (firmware)
Electrode material :
Initial state :
Electrolyte :
Comments :
Cable : special
Electrode surface area : 0.001 cm²
Characteristic mass : 0.001 g
Equivalent Weight : 0.000 g/eq.
Density : 0.000 g/cm3
Volume (V) : 0.001 cm³
Record EIS quality indicators
Cycle Definition : Charge/Discharge alternance
Ei (V)              0.000
vs.                 Eoc
dE/dt               20.000
dE/dt unit          mV/s
E1 (V)              0.700
vs.                 Ref
Step percent        50
N                   10
E range min (V)     -1.000
E range max (V)     1.000
I Range             Auto
I Range min         Unset
I Range max         Unset
I Range init        Unset
Bandwidth           8
E2 (V)              0.000
vs.                 Ref
nc cycles           1
Reverse Scan        1
Ef (V)              0.000
vs.                 Eoc

mode	ox/red	error	control changes	counter inc.	time/s	control/V	Ewe/V	<I>/mA	cycle number	(Q-Qo)/C	I Range	step time/s	P/W
2	1	1	1	0	0.000000000000000E+000	0.452283	0.452073	0.0161713	1	0.0000000E+000	41	0.000000000000000E+000	7.31062e-06
2	1	0	1	0	1.1632	0.475547	0.475368	0.100942	1	7.37814e-05	41	1.1494	4.79848e-05
2	1	0	1	0	2.3677	0.499635	0.499192	0.154634	1	0.000230864	40	2.3539	7.71919e-05
2	1	0	1	0	3.5421	0.523124	0.522703	0.18619	1	0.000434032	40	3.5283	9.7322e-05
2	1	0	1	0	4.7166	0.546614	0.546199	0.203325	1	0.000665039	40	4.7028	0.000111056
2	1	0	1	0	5.891	0.570102	0.569593	0.21358	1	0.000911613	40	5.8772	0.000121654
2	1	0	1	0	7.0654	0.59359	0.593261	0.22013	1	0.00116754	40	7.0516	0.000130595
2	1	0	1	0	8.2399	0.617079	0.616721	0.22453	1	0.00142969	40	8.2261	0.000138472
2	1	0	1	0	9.4143	0.640568	0.64028	0.228835	1	0.00169668	40	9.4005	0.000146518
2	1	0	1	0	10.5888	0.664057	0.663756	0.232143	1	0.00196769	40	10.575	0.000154086
2	1	0	1	0	11.7632	0.687546	0.687239	0.237034	1	0.00224333	40	11.7494	0.000162899
2	1	0	1	0	12.9008	0.689743	0.689312	0.234313	1	0.00251383	40	12.887	0.000161515
2	1	0	1	0	14.0752	0.666256	0.665968	0.230477	1	0.00278607	40	14.0614	0.00015349
2	1	0	1	0	15.2496	0.642767	0.642197	0.22803	1	0.00305493	40	15.2358	0.00014644
2	1	0	1	0	16.4241	0.619278	0.61912	0.225287	1	0.00332068	40	16.4103	0.00013948
2	1	0	1	0	17.5985	0.595789	0.595449	0.221177	1	0.00358228	40	17.5847	0.0001317
2	1	0	1	0	18.773	0.5723	0.572171	0.214355	1	0.00383744	40	18.7592	0.000122648
2	1	0	1	0	19.9474	0.548812	0.548421	0.20148	1	0.00408119	40	19.9336	0.000110496
2	1	0	1	0	21.1218	0.525323	0.525024	0.176697	1	0.00430358	40	21.108	9.27701e-05
2	1	0	1	0	22.2963	0.501834	0.50141	0.1323	1	0.00448634	40	22.2825	6.63364e-05
2	1	0	1	0	23.4707	0.478345	0.478131	0.0646281	1	0.00460319	40	23.4569	3.09007e-05
2	0	0	1	0	24.6752	0.454256	0.45388	-0.0178094	1	0.00463086	41	0.2499	-8.08336e-06
2	0	0	1	0	25.8496	0.430768	0.430658	-0.0832902	1	0.00456912	41	1.4243	-3.58696e-05
2	0	0	1	0	27.054	0.406679	0.406463	-0.122973	1	0.00444186	40	2.6287	-4.9984e-05
2	0	0	1	0	28.2285	0.38319	0.382745	-0.142627	1	0.0042835	40	3.8032	-5.45897e-05
2	0	0	1	0	29.4029	0.359702	0.359309	-0.152317	1	0.0041086	40	4.9776	-5.47288e-05
2	0	0	1	0	30.5774	0.336212	0.335996	-0.157801	1	0.00392539	40	6.1521	-5.30205e-05
2	0	0	1	0	31.7518	0.312724	0.312371	-0.160489	1	0.0037374	40	7.3265	-5.01321e-05
2	0	0	1	0	32.9262	0.289235	0.288833	-0.162715	1	0.00354646	40	8.5009	-4.69976e-05
2	0	0	1	0	34.1007	0.265746	0.265361	-0.164203	1	0.0033533	40	9.6754	-4.3573e-05
2	0	0	1	0	35.2751	0.242257	0.242106	-0.165181	1	0.00315871	40	10.8498	-3.99913e-05
2	0	0	1	0	36.4496	0.218769	0.218529	-0.165669	1	0.00296317	40	12.0243	-3.62034e-05
2	0	0	1	0	37.624	0.19528	0.194844	-0.165906	1	0.0027669	40	13.1987	-3.2326e-05
2	0	0	1	0	38.7984	0.171791	0.171307	-0.166379	1	0.00257004	40	14.3731	-2.85019e-05
2	0	0	1	0	39.9729	0.148302	0.148049	-0.166507	1	0.00237265	40	15.5476	-2.46513e-05
2	0	0	1	0	41.1473	0.124813	0.124646	-0.166927	1	0.0021749	40	16.722	-2.08067e-05
2	0	0	1	0	42.3218	0.101324	0.100986	-0.167101	1	0.00197688	40	17.8965	-1.68749e-05
2	0	0	1	0	43.4962	0.0778355	0.0774566	-0.167108	1	0.00177871	40	19.0709	-1.29436e-05
2	0	0	1	0	44.6707	0.0543467	0.0541762	-0.167455	1	0.00158047	40	20.2454	-9.07206e-06
2	0	0	1	0	45.8451	0.0308579	0.0307018	-0.167328	1	0.00138192	40	21.4198	-5.13727e-06
2	0	0	1	0	47.0195	0.00736902	0.00726758	-0.167865	1	0.00118328	40	22.5942	-1.21997e-06
2	0	0	1	1	48.152	0.0152653	0.0149834	-0.169193	1	0.00099263	40	23.7267	-2.53508e-06
2	0	0	1	1	49.3264	0.0387541	0.0384624	-0.169063	1	0.00079587	40	24.9011	-6.50258e-06
2	0	0	1	1	50.5008	0.0622412	0.061905	-0.168567	1	0.000599442	40	26.0755	-1.04351e-05
2	0	0	1	1	51.6753	0.0857318	0.0854088	-0.168376	1	0.000403487	40	27.25	-1.43808e-05
2	0	0	1	1	52.8497	0.109221	0.108948	-0.167694	1	0.000208029	40	28.4244	-1.827e-05
2	0	0	1	1	54.0242	0.132709	0.132496	-0.166963	1	1.32352e-05	40	29.5989	-2.21219e-05
2	0	0	1	1	55.1986	0.156198	0.156033	-0.165902	1	-0.000180428	40	30.7733	-2.58863e-05
2	0	0	1	1	56.3731	0.179687	0.179292	-0.164833	1	-0.000373067	40	31.9478	-2.95531e-05
2	0	0	1	1	57.5475	0.203176	0.202824	-0.163275	1	-0.000564312	40	33.1222	-3.31161e-05
2	0	0	1	1	58.722	0.226666	0.226391	-0.160812	1	-0.000753256	40	34.2967	-3.64064e-05
2	0	0	1	1	59.8964	0.250154	0.249759	-0.157929	1	-0.000939275	40	35.4711	-3.94442e-05
2	0	0	1	1	61.0708	0.273642	0.273278	-0.154134	1	-0.0011214	40	36.6455	-4.21214e-05
2	0	0	1	1	62.2453	0.297131	0.296814	-0.149924	1	-0.00129885	40	37.82	-4.44994e-05
2	0	0	1	1	63.4197	0.32062	0.320337	-0.14582	1	-0.00147149	40	38.9944	-4.67116e-05
2	0	0	1	1	64.5942	0.344109	0.343864	-0.141025	1	-0.00163913	40	40.1689	-4.84933e-05
2	0	0	1	1	65.7686	0.367598	0.367203	-0.131568	1	-0.0017988	40	41.3433	-4.83123e-05
2	0	0	1	1	66.943	0.391087	0.390862	-0.111944	1	-0.00194226	40	42.5177	-4.37545e-05
2	0	0	1	1	68.1175	0.414576	0.414204	-0.0734891	1	-0.00205232	40	43.6922	-3.04395e-05
2	0	0	1	1	69.3219	0.438664	0.438417	-0.0103736	1	-0.00210467	41	44.8966	-4.54797e-06
2	1	0	1	1	70.4514	0.461253	0.460812	0.0622226	2	-0.00207564	41	0.9296	2.86729e-05
2	1	0	1	1	71.6558	0.485342	0.485068	0.130932	2	-0.00195672	40	2.134	6.35107e-05
2	1	0	1	1	72.8302	0.50883	0.508695	0.175507	2	-0.00177335	40	3.3084	8.92796e-05
2	1	0	1	1	74.0047	0.53232	0.532281	0.199434	2	-0.00155047	40	4.4829	0.000106155
2	1	0	1	1	75.1791	0.555808	0.555528	0.212317	2	-0.00130682	40	5.6573	0.000117948
2	1	0	1	1	76.3536	0.579297	0.578955	0.219362	2	-0.00105186	40	6.8318	0.000127001
2	1	0	1	1	77.528	0.602786	0.602415	0.223748	2	-0.000790556	40	8.0062	0.000134789
2	1	0	1	1	78.7025	0.626275	0.626071	0.227031	2	-0.00052497	40	9.1807	0.000142138
2	1	0	1	1	79.8769	0.649764	0.64941	0.23089	2	-0.000255637	40	10.3551	0.000149942
[...]
2	1	0	1	1	91.5994	0.515827	0.51538	0.162035	2	0.00232919	40	22.0776	8.35096e-05
2	1	0	1	1	92.7739	0.492339	0.492036	0.108368	2	0.0024894	40	23.2521	5.33208e-05
2	1	0	1	1	93.9783	0.46825	0.467894	0.0303399	2	0.00257399	41	24.4565	1.41959e-05
2	0	0	1	1	95.1527	0.444761	0.444336	-0.0466626	2	0.00256304	41	0.6996	-2.07339e-05
2	0	0	1	1	96.3272	0.421272	0.420845	-0.101932	2	0.0024729	41	1.8741	-4.28978e-05
2	0	0	1	1	97.5316	0.397184	0.396784	-0.132096	2	0.00232921	40	3.0785	-5.24136e-05
2	0	0	1	1	98.706	0.373695	0.373338	-0.146883	2	0.00216328	40	4.2529	-5.48369e-05
2	0	0	1	1	99.8805	0.350206	0.349715	-0.154502	2	0.00198481	40	5.4274	-5.40318e-05
2	0	0	1	1	101.055	0.326717	0.326335	-0.158713	2	0.00179967	40	6.6018	-5.17937e-05
2	0	0	1	1	102.229	0.303228	0.302878	-0.161158	2	0.00161074	40	7.7763	-4.88112e-05
2	0	0	1	1	103.404	0.27974	0.279576	-0.162855	2	0.00141934	40	8.9507	-4.55304e-05
2	0	0	1	1	104.578	0.256252	0.256045	-0.164158	2	0.00122626	40	10.1251	-4.2032e-05
2	0	0	1	1	105.753	0.232762	0.232248	-0.164766	2	0.00103179	40	11.2996	-3.82666e-05
2	0	0	1	1	106.927	0.209273	0.208959	-0.165464	2	0.000836532	40	12.474	-3.45752e-05
2	0	0	1	1	108.102	0.185784	0.18555	-0.165827	2	0.000640417	40	13.6485	-3.07693e-05
2	0	0	1	1	109.276	0.162295	0.162024	-0.165887	2	0.000443889	40	14.8229	-2.68777e-05
2	0	0	1	1	110.45	0.138807	0.13836	-0.166211	2	0.000246987	40	15.9974	-2.29969e-05
2	0	0	1	1	111.625	0.115318	0.115163	-0.166583	2	4.97617e-05	40	17.1718	-1.91842e-05
2	0	0	1	1	112.799	0.0918271	0.0914199	-0.166679	2	-0.000147731	40	18.3463	-1.52377e-05
2	0	0	1	1	113.974	0.06834	0.0680513	-0.166377	2	-0.000345277	40	19.5207	-1.13221e-05
2	0	0	1	1	115.148	0.0448512	0.0446203	-0.166933	2	-0.000542948	40	20.6951	-7.44859e-06
2	0	0	1	1	116.323	0.0213624	0.0210218	-0.167209	2	-0.000741166	40	21.8696	-3.51503e-06
2	0	0	1	0	117.455	0.00127192	0.000870103	-0.169051	2	-0.000932312	40	23.002	-1.47092e-07
2	0	0	1	0	118.63	0.0247625	0.0245265	-0.168683	2	-0.00112887	40	24.1765	-4.13719e-06
2	0	0	1	0	119.804	0.0482496	0.0478759	-0.168371	2	-0.00132502	40	25.3509	-8.06093e-06
2	0	0	1	0	120.978	0.0717384	0.0714594	-0.168238	2	-0.00152096	40	26.5253	-1.20222e-05
2	0	0	1	0	122.153	0.0952273	0.0947924	-0.167856	2	-0.00171668	40	27.6998	-1.59115e-05
2	0	0	1	0	123.327	0.118716	0.118429	-0.167161	2	-0.00191158	40	28.8742	-1.97967e-05
2	0	0	1	0	124.502	0.142205	0.141787	-0.166319	2	-0.00210568	40	30.0487	-2.35819e-05
2	0	0	1	0	125.676	0.165694	0.165373	-0.165298	2	-0.00229872	40	31.2231	-2.73358e-05
2	0	0	1	0	126.851	0.189183	0.18888	-0.163927	2	-0.00249037	40	32.3975	-3.09626e-05
2	0	0	1	0	128.025	0.212671	0.212169	-0.161885	2	-0.00268029	40	33.572	-3.4347e-05
2	0	0	1	0	129.199	0.23616	0.235743	-0.159598	2	-0.00286785	40	34.7464	-3.76242e-05
2	0	0	1	0	130.374	0.259649	0.259364	-0.156109	2	-0.00305206	40	35.9209	-4.04892e-05
2	0	0	1	0	131.548	0.283138	0.282842	-0.151967	2	-0.00323187	40	37.0953	-4.29827e-05
2	0	0	1	0	132.723	0.306625	0.306264	-0.147853	2	-0.00340678	40	38.2697	-4.52821e-05
2	0	0	1	0	133.897	0.330116	0.329744	-0.143882	2	-0.00357711	40	39.4442	-4.74442e-05
2	0	0	1	0	135.072	0.353604	0.353232	-0.137708	2	-0.00374186	40	40.6186	-4.86428e-05
2	0	0	1	0	136.246	0.377093	0.37694	-0.125072	2	-0.0038961	40	41.7931	-4.71446e-05
2	0	0	1	0	137.421	0.400582	0.400234	-0.0985669	2	-0.00402813	40	42.9675	-3.94498e-05
2	0	0	1	0	138.595	0.424071	0.423986	-0.051337	2	-0.00411746	40	44.142	-2.17662e-05
2	1	0	1	0	139.799	0.44816	0.447919	0.0200907	2	-0.00413749	41	0.2999	8.99901e-06
2	1	0	1	0	139.886	0.449934	0.449336	0.0257027	2	-0.00413551	41	0.3868	1.15491e-05

File: 240313-CVEIS_PostActivation-Fe2Fe3_5mM-HCl1M-0225RPM-Ag_AgCl_BLF8-Au_RDE_02_PEIS_C15.mpt
EC-Lab ASCII FILE
Nb header lines : 66

Potentio Electrochemical Impedance Spectroscopy

Run on channel : 15 (SN 19485)
User :
Electrode connection : standard
Potential control : Ewe
Ewe ctrl range : min = -1.00 V, max = 1.00 V
Ewe,I filtering : <None>
Safety Limits :
	Do not start on E overload
Channel : Floating
Acquisition started on : 03/13/2024 17:04:56.446
Loaded Setting File :  NONE
Saved on :
	File : 240313-CVEIS_PostActivation-Fe2Fe3_5mM-HCl1M-225RPM-Ag_AgCl_BLF8-Au_RDE_02_PEIS_C15.mpr
	Directory : C:\Data\mathias\GoldElectrode\
	Host : 192.168.0.1
Device : VMP-300 (SN 0826)
Address : USB
EC-Lab for windows v11.52 (software)
Internet server v11.52 (firmware)
Command interpretor v11.52 (firmware)
Electrode material :
Initial state :
Electrolyte :
Comments :
Cable : special
Electrode surface area : 0.001 cm²
Characteristic mass : 0.001 g
Equivalent Weight : 0.000 g/eq.
Density : 0.000 g/cm3
Volume (V) : 0.001 cm³
Record EIS quality indicators
Cycle Definition : Charge/Discharge alternance
Mode                Single sine
E (V)               0.0000
vs.                 Eoc
tE (h:m:s)          0:01:0.0000
record              0
dI                  0.000
unit dI             mA
dt (s)              0.000
fi                  400.000
unit fi             kHz
ff                  100.000
unit ff             mHz
Nd                  10
Points              per decade
spacing             Logarithmic
Va (mV)             5.0
pw                  0.10
Na                  3
corr                0
E range min (V)     -1.000
E range max (V)     1.000
I Range             Auto
Bandwidth           8
nc cycles           0
goto Ns'            0
nr cycles           0
inc. cycle          1

freq/Hz	Re(Z)/Ohm	-Im(Z)/Ohm	|Z|/Ohm	Phase(Z)/deg	time/s	<Ewe>/V	<I>/mA	Cs/µF	Cp/µF	cycle number	I Range	|Ewe|/V	|I|/A	Ns	(Q-Qo)/mA.h	THD Ewe/%	NSD Ewe/%	NSR Ewe/%	|Ewe h2|/V	|Ewe h3|/V	|Ewe h4|/V	|Ewe h5|/V	|Ewe h6|/V	|Ewe h7|/V	THD I/%	NSD I/%	NSR I/%	|I h2|/A	|I h3|/A	|I h4|/A	|I h5|/A	|I h6|/A	|I h7|/A	Re(Y)/Ohm-1	Im(Y)/Ohm-1	|Y|/Ohm-1	Phase(Y)/deg	Re(C)/nF	Im(C)/nF	|C|/nF	Phase(C)/deg	Re(M)	Im(M)	|M|	Phase(M)/deg	Re(Permittivity)	Im(Permittivity)	|Permittivity|	Phase(Permittivity)/deg	Re(Resistivity)/Ohm.cm	Im(Resistivity)/Ohm.cm	|Resistivity|/Ohm.cm	Phase(Resistivity)/deg	Re(Conductivity)/mS/cm	Im(Conductivity)/mS/cm	|Conductivity|/mS/cm	Phase(Conductivity)/deg	Tan(Delta)	Loss Angle(Delta)/deg	dq/mA.h
399996	3.22338	1.38472	3.50822	-23.2477	203.378	0.449739	-0.0127267	0.287344	0.0447664	1	38	0.00490894	0.00139927	0	-4.10436e-06	-1	-1	-1	0	0	0	0	0	0	-1	-1	-1	0	0	0	0	0	0	0.261901	0.112509	0.285045	23.2477	44.7664	104.208	113.417	-66.7523	0.0000000E+000	0.0000000E+000	0.0000000E+000	66.7523	0.0000000E+000	0.0000000E+000	0.0000000E+000	-66.7523	0.0000000E+000	0.0000000E+000	0.0000000E+000	-23.2477	0.0000000E+000	0.0000000E+000	0.0000000E+000	23.2477	2.32782	66.7523	-4.10436e-06
126447	3.18907	0.343718	3.20754	-6.1516	209.549	0.449753	-0.0183538	3.66191	0.0420503	1	37	0.00519475	0.00161954	0	-3.93252e-05	-1	-1	-1	0	0	0	0	0	0	-1	-1	-1	0	0	0	0	0	0	0.309971	0.0334087	0.311766	6.1516	42.0503	390.149	392.409	-83.8484	0.0000000E+000	0.0000000E+000	0.0000000E+000	83.8484	0.0000000E+000	0.0000000E+000	0.0000000E+000	-83.8484	0.0000000E+000	0.0000000E+000	0.0000000E+000	-6.1516	0.0000000E+000	0.0000000E+000	0.0000000E+000	6.1516	9.27814	83.8484	-4.40649e-06
39971.8	3.40886	0.543093	3.45185	-9.05216	215.289	0.449757	-0.0260588	7.3315	0.181483	1	37	0.00516215	0.00149547	0	-8.00142e-05	0.873063	0.502269	19.6795	2.08592e-05	1.11126e-05	1.40521e-05	1.94199e-05	1.57901e-05	2.175e-05	0.685843	0.347534	11.7981	5.0408e-06	4.85951e-06	3.88273e-06	3.17425e-06	3.28459e-06	3.65468e-06	0.286091	0.0455794	0.289699	9.05216	181.483	1139.12	1153.49	-80.9478	0.0000000E+000	0.0000000E+000	0.0000000E+000	80.9478	0.0000000E+000	0.0000000E+000	0.0000000E+000	-80.9478	0.0000000E+000	0.0000000E+000	0.0000000E+000	-9.05216	0.0000000E+000	0.0000000E+000	0.0000000E+000	9.05216	6.27676	80.9478	-7.23061e-06
12637.3	3.68195	0.949899	3.80251	-14.4662	221.03	0.449736	-0.0334103	13.2583	0.827374	1	37	0.00507599	0.00133491	0	-0.000125812	1.15553	0.667175	19.4842	2.67163e-05	1.48376e-05	2.03138e-05	2.50711e-05	2.03644e-05	2.26776e-05	0.695053	0.538443	13.3629	2.52911e-06	2.65259e-06	3.35643e-06	3.29163e-06	3.41904e-06	4.60759e-06	0.254646	0.0656957	0.262984	14.4662	827.374	3207.03	3312.03	-75.5338	0.0000000E+000	0.0000000E+000	0.0000000E+000	75.5338	0.0000000E+000	0.0000000E+000	0.0000000E+000	-75.5338	0.0000000E+000	0.0000000E+000	0.0000000E+000	-14.4662	0.0000000E+000	0.0000000E+000	0.0000000E+000	14.4662	3.87615	75.5338	-1.09886e-05
3993.72	4.0531	2.27938	4.65008	-29.3525	227.074	0.449604	-0.00280622	17.4834	4.20088	1	38	0.00501124	0.00107767	0	-0.000149136	1.05559	0.34381	19.6222	1.64828e-05	2.49206e-05	1.84082e-05	1.67407e-05	1.82312e-05	2.38699e-05	0.17734	0.262375	2.72727	1.20572e-06	5.90239e-07	2.62889e-07	7.08726e-07	7.27511e-07	5.46409e-07	0.187442	0.105414	0.21505	29.3525	4200.88	7469.81	8570.03	-60.6475	0.0000000E+000	0.0000000E+000	0.0000000E+000	60.6475	0.0000000E+000	0.0000000E+000	0.0000000E+000	-60.6475	0.0000000E+000	0.0000000E+000	0.0000000E+000	-29.3525	0.0000000E+000	0.0000000E+000	0.0000000E+000	29.3525	1.77816	60.6475	-3.27681e-06
1262.98	5.15935	6.11095	7.99766	-49.8263	232.607	0.449607	-0.00301104	20.6213	12.0395	1	38	0.0050373	0.000629846	0	-0.000153678	0.998568	0.595378	19.5504	1.70116e-05	1.97187e-05	1.76392e-05	1.02464e-05	2.3033e-05	2.65889e-05	0.474941	0.166757	4.65827	1.97667e-06	1.37716e-06	7.51295e-07	1.12327e-06	7.858e-07	3.97653e-07	0.0806619	0.0955395	0.125037	49.8263	12039.5	10164.7	15756.6	-40.1737	0.0000000E+000	0.0000000E+000	0.0000000E+000	40.1737	0.0000000E+000	0.0000000E+000	0.0000000E+000	-40.1737	0.0000000E+000	0.0000000E+000	0.0000000E+000	-49.8263	0.0000000E+000	0.0000000E+000	0.0000000E+000	49.8263	0.844278	40.1737	-3.34191e-07
399.106	10.4384	15.2264	18.4609	-55.5675	238.144	0.449644	0.000740746	26.1899	17.8166	1	38	0.00480651	0.000260362	0	-0.000155695	1.21459	0.712732	20.4203	2.43154e-05	1.71163e-05	1.91648e-05	3.27408e-05	1.18904e-05	2.61115e-05	0.74551	0.312129	11.2839	1.07928e-06	7.17308e-07	5.88496e-07	4.69873e-07	9.35176e-07	3.69612e-07	0.0306288	0.0446778	0.0541685	55.5675	17816.6	12214.1	21601.3	-34.4325	0.0000000E+000	0.0000000E+000	0.0000000E+000	34.4325	0.0000000E+000	0.0000000E+000	0.0000000E+000	-34.4325	0.0000000E+000	0.0000000E+000	0.0000000E+000	-55.5675	0.0000000E+000	0.0000000E+000	0.0000000E+000	55.5675	0.685547	34.4325	-2.30999e-07
126.171	27.7327	27.0921	38.7697	-44.3305	243.92	0.449632	0.000352788	46.5605	22.7363	1	39	0.00478968	0.000123542	0	-0.000155277	1.00655	0.471186	21.8596	1.23153e-05	1.40077e-05	1.29536e-05	2.61819e-05	1.31557e-05	2.38763e-05	0.692075	0.305834	10.4126	3.87336e-07	2.15471e-07	2.77959e-07	4.59794e-07	2.85365e-07	3.16759e-07	0.0184505	0.0180243	0.0257934	44.3305	22736.3	23273.9	32536.3	-45.6695	0.0000000E+000	0.0000000E+000	0.0000000E+000	45.6695	0.0000000E+000	0.0000000E+000	0.0000000E+000	-45.6695	0.0000000E+000	0.0000000E+000	0.0000000E+000	-44.3305	0.0000000E+000	0.0000000E+000	0.0000000E+000	44.3305	1.02365	45.6695	-5.54471e-08
[...]
3.98597	95.2677	39.9598	103.309	-22.7555	262.342	0.449637	0.000648026	999.224	149.498	1	40	0.00476042	4.60795e-05	0	-0.000154192	1.26015	0.594469	20.615	1.38912e-05	1.63035e-05	2.05533e-05	2.05055e-05	2.78513e-05	3.18733e-05	0.456105	0.170084	2.83757	1.87146e-07	4.14162e-08	3.55557e-08	4.69926e-08	3.83653e-08	3.43416e-08	0.00892628	0.00374411	0.00967971	22.7555	149498	356416	386499	-67.2445	0.0000000E+000	0.0000000E+000	0.0000000E+000	67.2445	0.0000000E+000	0.0000000E+000	0.0000000E+000	-67.2445	0.0000000E+000	0.0000000E+000	0.0000000E+000	-22.7555	0.0000000E+000	0.0000000E+000	0.0000000E+000	22.7555	2.38409	67.2445	1.06424e-07
1.25968	125.587	59.6263	139.023	-25.3974	280.284	0.449644	0.000704087	2118.96	389.784	1	40	0.00474957	3.41638e-05	0	-0.000150222	0.471053	0.298528	10.4337	5.44289e-06	8.24496e-06	8.9833e-06	9.40162e-06	1.10078e-05	7.39536e-06	0.541937	0.181903	2.02189	1.75096e-07	2.11165e-08	2.20249e-08	4.08843e-08	2.19191e-08	5.74247e-09	0.00649786	0.00308505	0.00719304	25.3974	389784	820978	908810	-64.6026	0.0000000E+000	0.0000000E+000	0.0000000E+000	64.6026	0.0000000E+000	0.0000000E+000	0.0000000E+000	-64.6026	0.0000000E+000	0.0000000E+000	0.0000000E+000	-25.3974	0.0000000E+000	0.0000000E+000	0.0000000E+000	25.3974	2.10624	64.6026	1.34611e-06
0.398211	186.508	97.6299	210.515	-27.6304	335.449	0.44964	0.00108972	4093.77	880.486	1	41	0.00474785	2.25535e-05	0	-0.000139101	0.407569	0.18038	7.57558	5.52968e-06	9.94669e-06	6.52133e-06	7.77501e-06	9.29574e-06	5.76124e-06	0.730064	0.230822	0.590835	1.56673e-07	2.29737e-08	1.33336e-08	3.58305e-08	1.29853e-08	1.12592e-08	0.00420852	0.00220301	0.00475025	27.6304	880486	1.68204e+06	1.89856e+06	-62.3696	0.0000000E+000	0.0000000E+000	0.0000000E+000	62.3696	0.0000000E+000	0.0000000E+000	0.0000000E+000	-62.3696	0.0000000E+000	0.0000000E+000	0.0000000E+000	-27.6304	0.0000000E+000	0.0000000E+000	0.0000000E+000	27.6304	1.91035	62.3696	2.53073e-06
0.125939	299.361	88.5667	312.187	-16.481	498.254	0.449661	0.00213725	14268.9	1148.42	1	41	0.00474792	1.52086e-05	0	-6.57618e-05	0.219323	0.143939	4.35028	3.86775e-06	2.68907e-06	4.02073e-06	5.58992e-06	3.8633e-06	3.95074e-06	0.684573	0.432923	0.612805	9.96808e-08	1.44016e-08	1.08587e-08	2.14159e-08	4.32286e-09	5.08231e-09	0.0030716	0.00090874	0.0032032	16.481	1.14842e+06	3.88173e+06	4.04805e+06	-73.519	0.0000000E+000	0.0000000E+000	0.0000000E+000	73.519	0.0000000E+000	0.0000000E+000	0.0000000E+000	-73.519	0.0000000E+000	0.0000000E+000	0.0000000E+000	-16.481	0.0000000E+000	0.0000000E+000	0.0000000E+000	16.481	3.38006	73.519	2.32817e-05
0.0999518	317.258	77.6043	326.612	-13.7452	559.657	0.449652	0.00251852	20518.4	1158.38	1	41	0.00475023	1.4544e-05	0	-2.71552e-05	0.255007	0.122641	4.29	5.45572e-06	5.57279e-06	3.05933e-06	4.42363e-06	5.71144e-06	2.70324e-06	0.884018	0.407416	0.62017	1.24628e-07	8.19931e-09	1.77815e-08	1.91791e-08	5.73074e-09	7.40073e-09	0.00297406	0.000727483	0.00306174	13.7452	1.15838e+06	4.73565e+06	4.87526e+06	-76.2548	0.0000000E+000	0.0000000E+000	0.0000000E+000	76.2548	0.0000000E+000	0.0000000E+000	0.0000000E+000	-76.2548	0.0000000E+000	0.0000000E+000	0.0000000E+000	-13.7452	0.0000000E+000	0.0000000E+000	0.0000000E+000	13.7452	4.08815	76.2548	3.86066e-05