Folder: Thesis/Python/Data/GoldElectrode/240308 (part 4)

File: 240308-CVEIS_PostActivation-Fe2Fe3_5mM-HCl1M-0RPM-Ag_AgCl_BLF8-Au_RDE-C15_01_CV_C15.mpt
EC-Lab ASCII FILE
Nb header lines : 60

Cyclic Voltammetry

Run on channel : 15 (SN 19485)
User :
Electrode connection : standard
Potential control : Ewe
Ewe ctrl range : min = -1.00 V, max = 1.00 V
Ewe,I filtering : <None>
Safety Limits :
	Do not start on E overload
Channel : Floating
Acquisition started on : 03/08/2024 17:26:24.349
Loaded Setting File :  C:\Data\mathias\GoldElectrode\240308-CVEIS_PostActivation-Fe2Fe3_5mM-HCl1M-0RPM-Ag_AgCl_BLF8-Au_RDE-C15.mps
Saved on :
	File : 240308-CVEIS_PostActivation-Fe2Fe3_5mM-HCl1M-0RPM-Ag_AgCl_BLF8-Au_RDE-C15_01_CV_C15.mpr
	Directory : C:\Data\mathias\GoldElectrode\
	Host : 192.168.0.1
Device : VMP-300 (SN 0826)
Address : USB
EC-Lab for windows v11.52 (software)
Internet server v11.52 (firmware)
Command interpretor v11.52 (firmware)
Electrode material :
Initial state :
Electrolyte :
Comments :
Cable : special
Electrode surface area : 0.001 cm²
Characteristic mass : 0.001 g
Equivalent Weight : 0.000 g/eq.
Density : 0.000 g/cm3
Volume (V) : 0.001 cm³
Record EIS quality indicators
Cycle Definition : Charge/Discharge alternance
Ei (V)              0.000
vs.                 Eoc
dE/dt               20.000
dE/dt unit          mV/s
E1 (V)              1.000
vs.                 Ref
Step percent        50
N                   10
E range min (V)     -1.000
E range max (V)     1.000
I Range             Auto
I Range min         Unset
I Range max         Unset
I Range init        Unset
Bandwidth           8
E2 (V)              0.000
vs.                 Ref
nc cycles           1
Reverse Scan        1
Ef (V)              0.000
vs.                 Eoc

mode	ox/red	error	control changes	counter inc.	time/s	control/V	Ewe/V	<I>/mA	cycle number	(Q-Qo)/C	I Range	step time/s	P/W
2	0	0	0	0	0.000000000000000E+000	0.452471	0.452586	-0.000912361	1	0.0000000E+000	43	0.000000000000000E+000	-4.12922e-07
2	1	0	1	0	1.703	0.48653	0.486233	0.113127	1	0.000140079	40	1.6592	5.50062e-05
2	1	0	1	0	3.3272	0.519014	0.518698	0.107271	1	0.000325423	40	3.2834	5.56411e-05
2	1	0	1	0	4.9515	0.551499	0.551493	0.0865826	1	0.000483856	40	4.9077	4.77497e-05
2	1	0	1	0	6.5757	0.583983	0.583638	0.0714527	1	0.000612372	40	6.5319	4.17025e-05
2	1	0	1	0	8.1999	0.616468	0.616078	0.0622536	1	0.000720997	40	8.1561	3.83531e-05
2	1	0	1	0	9.8241	0.648952	0.648671	0.0570568	1	0.000817761	40	9.7803	3.70111e-05
2	1	0	1	0	11.4484	0.681437	0.681182	0.0553521	1	0.000908617	40	11.4046	3.77049e-05
2	1	0	1	0	13.0726	0.713921	0.713711	0.0592212	1	0.00100081	40	13.0288	4.22668e-05
2	1	0	1	0	14.6968	0.746405	0.746013	0.0701058	1	0.00110515	40	14.653	5.22998e-05
2	1	0	1	0	16.321	0.77889	0.778469	0.0908172	1	0.00123429	40	16.2772	7.06984e-05
2	1	0	1	0	17.9452	0.811374	0.811055	0.131911	1	0.00141109	40	17.9014	0.000106987
2	1	0	1	0	19.5695	0.843859	0.843425	0.238772	1	0.00169724	40	19.5257	0.000201386
2	1	0	1	0	21.1937	0.876343	0.875918	0.541449	1	0.00229148	40	21.1499	0.000474265
2	1	0	1	0	22.8479	0.909427	0.909058	1.23421	1	0.003702	39	22.8041	0.00112197
2	1	0	1	0	24.4721	0.941912	0.941598	2.32781	1	0.00653542	39	24.4283	0.00219186
2	1	0	1	0	26.0964	0.974397	0.974181	3.9635	1	0.0115646	39	26.0526	0.00386117
2	1	0	1	0	27.6909	0.993737	0.993413	5.0913	1	0.0193911	39	27.6471	0.00505776
2	1	0	1	0	29.3151	0.961253	0.960842	2.89794	1	0.0257313	39	29.2713	0.00278446
2	1	0	1	0	30.9394	0.928768	0.928524	1.54042	1	0.0292452	39	30.8956	0.00143032
2	1	0	1	0	32.5636	0.896284	0.895938	0.729829	1	0.0310269	39	32.5198	0.000653881
2	1	0	1	0	34.2178	0.8632	0.86274	0.292315	1	0.0318276	40	34.174	0.000252192
2	1	0	1	0	35.842	0.830715	0.830283	0.10467	1	0.0321266	40	35.7982	8.69061e-05
2	1	0	1	0	37.4962	0.797631	0.797341	0.0286452	1	0.0322274	41	37.4524	2.284e-05
2	0	0	1	0	39.1804	0.763947	0.763318	-0.0131879	1	0.0322395	41	0.5047	-1.00666e-05
2	0	0	1	0	40.8046	0.731463	0.731088	-0.0525041	1	0.0321849	41	2.1289	-3.83851e-05
2	0	0	1	0	42.4289	0.698978	0.698559	-0.0690576	1	0.0320817	41	3.7532	-4.82408e-05
2	0	0	1	0	44.0531	0.666494	0.665884	-0.0605221	1	0.0319745	41	5.3774	-4.03007e-05
2	0	0	1	0	45.6773	0.634009	0.633858	-0.0537893	1	0.031884	41	7.0016	-3.40948e-05
2	0	0	1	0	47.3015	0.601525	0.601191	-0.0873149	1	0.0317793	41	8.6258	-5.2493e-05
2	0	0	1	0	48.9558	0.568439	0.56817	-0.228834	1	0.0315292	40	10.2801	-0.000130016
2	0	0	1	0	50.58	0.535956	0.535594	-0.27848	1	0.0310941	40	11.9043	-0.000149152
2	0	0	1	0	52.2042	0.503472	0.503237	-0.233217	1	0.0306745	40	13.5285	-0.000117364
2	0	0	1	0	53.8284	0.470987	0.470546	-0.223984	1	0.0303116	40	15.1527	-0.000105395
2	0	0	1	0	55.4526	0.438503	0.438257	-0.241659	1	0.0299296	40	16.7769	-0.000105909
2	0	0	1	0	57.0769	0.406018	0.405568	-0.215268	1	0.0295518	40	18.4012	-8.73058e-05
2	0	0	1	0	58.7011	0.373534	0.373439	-0.16946	1	0.0292388	40	20.0254	-6.3283e-05
2	0	0	1	0	60.3253	0.341049	0.340712	-0.133439	1	0.0289933	40	21.6496	-4.54643e-05
2	0	0	1	0	61.9495	0.308565	0.308441	-0.10887	1	0.0287963	40	23.2738	-3.35798e-05
2	0	0	1	0	63.5738	0.27608	0.275757	-0.0916264	1	0.0286324	40	24.8981	-2.52667e-05
2	0	0	1	0	65.198	0.243596	0.243573	-0.0784914	1	0.0284927	40	26.5223	-1.91184e-05
2	0	0	1	0	66.8222	0.211111	0.210864	-0.0682326	1	0.0283711	40	28.1465	-1.43878e-05
2	0	0	1	0	68.4464	0.178627	0.178236	-0.0604534	1	0.0282637	40	29.7707	-1.0775e-05
2	0	0	1	0	70.0707	0.146142	0.145892	-0.0548715	1	0.0281676	40	31.395	-8.00532e-06
2	0	0	1	0	71.6949	0.113658	0.113203	-0.050298	1	0.0280807	40	33.0192	-5.69387e-06
2	0	0	1	0	73.3191	0.0811735	0.0809729	-0.0467068	1	0.0280011	40	34.6434	-3.78198e-06
2	0	0	1	0	74.9733	0.0480893	0.0474725	-0.0436399	1	0.0279262	41	36.2976	-2.0717e-06
2	0	0	1	0	76.5975	0.0156048	0.0153398	-0.0409939	1	0.0278575	41	37.9218	-6.28839e-07
2	0	0	1	1	78.1924	0.0162545	0.0158972	-0.0377915	1	0.0277947	41	39.5167	-6.0078e-07
2	0	0	1	1	79.8167	0.048739	0.0481656	-0.0358857	1	0.0277349	41	41.141	-1.72846e-06
2	0	0	1	1	81.4409	0.0812235	0.0808677	-0.0344758	1	0.0276779	41	42.7652	-2.78798e-06
2	0	0	1	1	83.0651	0.113708	0.1135	-0.0333341	1	0.0276229	41	44.3894	-3.78343e-06
2	0	0	1	1	84.6893	0.146192	0.146029	-0.0321835	1	0.0275697	41	46.0136	-4.69974e-06
2	0	0	1	1	86.3136	0.178677	0.178235	-0.0310682	1	0.0275184	41	47.6379	-5.53745e-06
2	0	0	1	1	87.9378	0.211161	0.210725	-0.0301328	1	0.0274688	41	49.2621	-6.34974e-06
2	0	0	1	1	89.562	0.243646	0.243257	-0.0293595	1	0.0274205	41	50.8863	-7.14192e-06
2	0	0	1	1	91.1862	0.27613	0.275987	-0.0285118	1	0.0273735	41	52.5105	-7.86887e-06
2	0	0	1	1	92.8105	0.308615	0.308397	-0.0270568	1	0.0273282	41	54.1348	-8.34422e-06
2	0	0	1	1	94.4347	0.341099	0.341182	-0.0230761	1	0.027287	41	55.759	-7.87315e-06
2	0	0	1	1	96.0589	0.373584	0.373412	-0.0117089	1	0.0272571	41	57.3832	-4.37223e-06
2	1	0	1	1	97.7431	0.407268	0.406979	0.0237019	1	0.0272621	41	0.8796	9.64618e-06
2	1	0	1	1	99.3673	0.439752	0.439451	0.0937863	1	0.0273538	41	2.5038	4.12145e-05
2	1	0	1	1	100.984	0.472085	0.471689	0.153609	2	0.0275612	40	4.1205	7.24557e-05
2	1	0	1	1	102.608	0.504571	0.504332	0.15008	2	0.0278158	40	5.7448	7.56902e-05
2	1	0	1	1	104.232	0.537056	0.536711	0.1201	2	0.0280365	40	7.369	6.44588e-05
2	1	0	1	1	105.857	0.56954	0.569129	0.0951315	2	0.0282111	40	8.9932	5.41421e-05
2	1	0	1	1	107.481	0.602026	0.601619	0.079165	2	0.0283529	40	10.6175	4.76272e-05
2	1	0	1	1	109.105	0.634509	0.63419	0.0692136	2	0.0284735	40	12.2417	4.38946e-05
[...]
2	1	0	1	1	130.218	0.943261	0.943006	2.28117	2	0.0585341	39	33.3544	0.00215116
2	1	0	1	1	131.842	0.910777	0.910561	1.14293	2	0.0612339	39	34.9786	0.00104071
2	1	0	1	1	133.466	0.878292	0.877874	0.498397	2	0.0625106	39	36.6029	0.00043753
2	1	0	1	1	135.121	0.845208	0.845028	0.182708	2	0.0630361	40	38.2571	0.000154393
2	1	0	1	1	136.745	0.812724	0.812294	0.0589617	2	0.0632164	40	39.8813	4.78942e-05
2	1	0	1	1	138.399	0.77964	0.779251	0.0047399	2	0.0632643	41	41.5355	3.69357e-06
2	0	0	1	1	140.083	0.745956	0.745669	-0.0405662	2	0.0632345	41	1.4793	-3.0249e-05
2	0	0	1	1	141.707	0.713471	0.713434	-0.0700227	2	0.0631404	41	3.1035	-4.99565e-05
2	0	0	1	1	143.332	0.680987	0.680557	-0.0678317	2	0.0630249	41	4.7277	-4.61633e-05
2	0	0	1	1	144.956	0.648502	0.648022	-0.0554121	2	0.0629255	41	6.352	-3.59083e-05
2	0	0	1	1	146.58	0.616018	0.615954	-0.0650224	2	0.0628334	41	7.9762	-4.00508e-05
2	0	0	1	1	148.234	0.582934	0.582542	-0.168133	2	0.0626609	40	9.6304	-9.79446e-05
2	0	0	1	1	149.858	0.550449	0.550272	-0.295654	2	0.0622561	40	11.2546	-0.00016269
2	0	0	1	1	151.483	0.517965	0.517727	-0.250686	2	0.0617999	40	12.8788	-0.000129787
2	0	0	1	1	153.107	0.48548	0.485184	-0.209312	2	0.0614349	40	14.5031	-0.000101555
2	0	0	1	1	154.731	0.452996	0.452691	-0.229099	2	0.0610819	40	16.1273	-0.000103711
2	0	0	1	1	156.355	0.420511	0.420274	-0.226225	2	0.0607041	40	17.7515	-9.50764e-05
2	0	0	1	1	157.98	0.388027	0.387517	-0.18403	2	0.0603683	40	19.3757	-7.13148e-05
2	0	0	1	1	159.604	0.355542	0.355255	-0.143338	2	0.060103	40	21	-5.09217e-05
2	0	0	1	1	161.228	0.323058	0.322929	-0.114773	2	0.0598938	40	22.6242	-3.70635e-05
2	0	0	1	1	162.852	0.290573	0.290223	-0.0950842	2	0.0597232	40	24.2484	-2.75956e-05
2	0	0	1	1	164.476	0.258089	0.257982	-0.0809185	2	0.0595796	40	25.8726	-2.08755e-05
2	0	0	1	1	166.101	0.225604	0.225437	-0.0700584	2	0.0594557	40	27.4969	-1.57937e-05
2	0	0	1	1	167.725	0.19312	0.192806	-0.0618643	2	0.0593467	40	29.1211	-1.19278e-05
2	0	0	1	1	169.349	0.160635	0.160204	-0.0551722	2	0.0592492	40	30.7453	-8.83881e-06
2	0	0	1	1	170.973	0.128151	0.12801	-0.0500707	2	0.0591608	40	32.3695	-6.40953e-06
2	0	0	1	1	172.598	0.0956683	0.0953679	-0.046626	2	0.0590797	40	33.9937	-4.44662e-06
2	0	0	1	1	174.252	0.0625824	0.062236	-0.0445981	2	0.0590032	41	35.648	-2.77561e-06
2	0	0	1	1	175.876	0.0300979	0.0302074	-0.0419418	2	0.058933	41	37.2722	-1.26695e-06
2	0	0	1	0	177.471	0.00176144	0.00143219	-0.0388646	2	0.0588679	41	38.8671	-5.56614e-08
2	0	0	1	0	179.095	0.0342459	0.0342072	-0.0367434	2	0.0588067	41	40.4913	-1.25689e-06
2	0	0	1	0	180.719	0.0667304	0.0667956	-0.0352291	2	0.0587484	41	42.1155	-2.35315e-06
2	0	0	1	0	182.344	0.0992149	0.0988411	-0.0339723	2	0.0586923	41	43.7398	-3.35786e-06
2	0	0	1	0	183.968	0.131699	0.131413	-0.0329535	2	0.058638	41	45.364	-4.33051e-06
2	0	0	1	0	185.592	0.164184	0.164229	-0.0320299	2	0.0585853	41	46.9882	-5.26023e-06
2	0	0	1	0	187.216	0.196668	0.196488	-0.0312904	2	0.0585339	41	48.6124	-6.1482e-06
2	0	0	1	0	188.841	0.229153	0.229075	-0.0305001	2	0.0584838	41	50.2367	-6.98681e-06
2	0	0	1	0	190.465	0.261637	0.261444	-0.0296735	2	0.0584349	41	51.8609	-7.75796e-06
2	0	0	1	0	192.089	0.294122	0.293609	-0.0284173	2	0.0583877	41	53.4851	-8.34355e-06
2	0	0	1	0	193.713	0.326606	0.326245	-0.0256853	2	0.0583434	41	55.1093	-8.37972e-06
2	0	0	1	0	195.337	0.359089	0.358811	-0.0185352	2	0.0583065	41	56.7335	-6.65064e-06
2	1	0	1	0	196.992	0.392175	0.39204	0.00345016	2	0.0582907	42	0.15	1.3526e-06
2	1	0	1	0	198.646	0.425259	0.425409	0.0597811	2	0.0583374	41	1.8042	2.54314e-05
2	1	0	0	0	199.947	0.451322	0.451254	0.12132	2	0.0584559	40	3.1051	5.47461e-05

File: 240308-CVEIS_PostActivation-Fe2Fe3_5mM-HCl1M-0RPM-Ag_AgCl_BLF8-Au_RDE-C15_02_PEIS_C15.mpt
EC-Lab ASCII FILE
Nb header lines : 66

Potentio Electrochemical Impedance Spectroscopy

Run on channel : 15 (SN 19485)
User :
Electrode connection : standard
Potential control : Ewe
Ewe ctrl range : min = -1.00 V, max = 1.00 V
Ewe,I filtering : <None>
Safety Limits :
	Do not start on E overload
Channel : Floating
Acquisition started on : 03/08/2024 17:26:24.349
Loaded Setting File :  C:\Data\mathias\GoldElectrode\240308-CVEIS_PostActivation-Fe2Fe3_5mM-HCl1M-0RPM-Ag_AgCl_BLF8-Au_RDE-C15.mps
Saved on :
	File : 240308-CVEIS_PostActivation-Fe2Fe3_5mM-HCl1M-0RPM-Ag_AgCl_BLF8-Au_RDE-C15_02_PEIS_C15.mpr
	Directory : C:\Data\mathias\GoldElectrode\
	Host : 192.168.0.1
Device : VMP-300 (SN 0826)
Address : USB
EC-Lab for windows v11.52 (software)
Internet server v11.52 (firmware)
Command interpretor v11.52 (firmware)
Electrode material :
Initial state :
Electrolyte :
Comments :
Cable : special
Electrode surface area : 0.001 cm²
Characteristic mass : 0.001 g
Equivalent Weight : 0.000 g/eq.
Density : 0.000 g/cm3
Volume (V) : 0.001 cm³
Record EIS quality indicators
Cycle Definition : Charge/Discharge alternance
Mode                Single sine
E (V)               0.0000
vs.                 Eoc
tE (h:m:s)          0:01:0.0000
record              0
dI                  0.000
unit dI             mA
dt (s)              0.000
fi                  400.000
unit fi             kHz
ff                  100.000
unit ff             mHz
Nd                  10
Points              per decade
spacing             Logarithmic
Va (mV)             5.0
pw                  0.10
Na                  3
corr                0
E range min (V)     -1.000
E range max (V)     1.000
I Range             Auto
Bandwidth           8
nc cycles           1
goto Ns'            0
nr cycles           0
inc. cycle          1

freq/Hz	Re(Z)/Ohm	-Im(Z)/Ohm	|Z|/Ohm	Phase(Z)/deg	time/s	<Ewe>/V	<I>/mA	Cs/µF	Cp/µF	cycle number	I Range	|Ewe|/V	|I|/A	Ns	(Q-Qo)/mA.h	THD Ewe/%	NSD Ewe/%	NSR Ewe/%	|Ewe h2|/V	|Ewe h3|/V	|Ewe h4|/V	|Ewe h5|/V	|Ewe h6|/V	|Ewe h7|/V	THD I/%	NSD I/%	NSR I/%	|I h2|/A	|I h3|/A	|I h4|/A	|I h5|/A	|I h6|/A	|I h7|/A	Re(Y)/Ohm-1	Im(Y)/Ohm-1	|Y|/Ohm-1	Phase(Y)/deg	Re(C)/nF	Im(C)/nF	|C|/nF	Phase(C)/deg	Re(M)	Im(M)	|M|	Phase(M)/deg	Re(Permittivity)	Im(Permittivity)	|Permittivity|	Phase(Permittivity)/deg	Re(Resistivity)/Ohm.cm	Im(Resistivity)/Ohm.cm	|Resistivity|/Ohm.cm	Phase(Resistivity)/deg	Re(Conductivity)/mS/cm	Im(Conductivity)/mS/cm	|Conductivity|/mS/cm	Phase(Conductivity)/deg	Tan(Delta)	Loss Angle(Delta)/deg	dq/mA.h
399996	3.31389	1.21979	3.53125	-20.2079	263.592	0.45114	-0.00314322	0.326196	0.0389218	1	38	0.00463967	0.00131389	0	9.14228e-05	-1	-1	-1	0	0	0	0	0	0	-1	-1	-1	0	0	0	0	0	0	0.265754	0.0978201	0.283186	20.2079	38.9218	105.741	112.677	-69.7921	0.0000000E+000	0.0000000E+000	0.0000000E+000	69.7921	0.0000000E+000	0.0000000E+000	0.0000000E+000	-69.7921	0.0000000E+000	0.0000000E+000	0.0000000E+000	-20.2079	0.0000000E+000	0.0000000E+000	0.0000000E+000	20.2079	2.71677	69.7921	9.14228e-05
50326.6	3.41067	0.424384	3.43697	-7.09277	274.357	0.451163	-0.0322006	7.45183	0.113614	1	37	0.00519191	0.00151061	0	1.98822e-05	1.57421	1.03297	31.4052	3.79222e-05	3.4514e-05	1.55071e-05	2.28871e-05	4.11372e-05	3.35748e-05	0.679549	0.3817	11.6417	2.79387e-06	4.19487e-06	3.91285e-06	4.84203e-06	5.27093e-06	2.94986e-06	0.288727	0.0359259	0.290954	7.09277	113.614	913.084	920.125	-82.9072	0.0000000E+000	0.0000000E+000	0.0000000E+000	82.9072	0.0000000E+000	0.0000000E+000	0.0000000E+000	-82.9072	0.0000000E+000	0.0000000E+000	0.0000000E+000	-7.09277	0.0000000E+000	0.0000000E+000	0.0000000E+000	7.09277	8.03674	82.9072	-1.1586e-05
6332.63	3.97684	1.1191	4.1313	-15.7168	285.024	0.451032	-0.00386566	22.4579	1.64789	1	38	0.00491082	0.00118869	0	-7.57199e-05	1.84334	0.843823	32.3606	5.77141e-05	2.18448e-05	1.86127e-05	2.38627e-05	3.70057e-05	4.10077e-05	0.188273	0.0852606	2.46469	1.31031e-06	6.77448e-07	6.17802e-07	8.29648e-07	6.21854e-07	6.08296e-07	0.233005	0.0655682	0.242054	15.7168	1647.89	5855.99	6083.44	-74.2832	0.0000000E+000	0.0000000E+000	0.0000000E+000	74.2832	0.0000000E+000	0.0000000E+000	0.0000000E+000	-74.2832	0.0000000E+000	0.0000000E+000	0.0000000E+000	-15.7168	0.0000000E+000	0.0000000E+000	0.0000000E+000	15.7168	3.55362	74.2832	-3.18511e-06
796.787	6.52475	3.22538	7.27843	-26.3046	295.434	0.451008	-0.00360686	61.9294	12.1614	1	38	0.00516154	0.000709156	0	-8.53798e-05	2.39965	0.800599	30.2606	6.61081e-05	5.78082e-05	3.26855e-05	2.98764e-05	4.92062e-05	2.68929e-05	0.341485	0.140848	4.08429	8.93088e-07	1.14089e-06	1.01083e-06	1.18451e-06	7.18961e-07	4.83374e-07	0.123166	0.0608844	0.137392	26.3046	12161.4	24601.8	27443.5	-63.6954	0.0000000E+000	0.0000000E+000	0.0000000E+000	63.6954	0.0000000E+000	0.0000000E+000	0.0000000E+000	-63.6954	0.0000000E+000	0.0000000E+000	0.0000000E+000	-26.3046	0.0000000E+000	0.0000000E+000	0.0000000E+000	26.3046	2.02294	63.6954	-1.45519e-06
100.224	12.0852	6.82515	13.8793	-29.4557	305.388	0.451067	-0.00114539	232.667	56.2633	1	38	0.0050641	0.000364868	0	-8.82911e-05	1.60336	0.836799	30.5014	4.31692e-05	3.68273e-05	3.13968e-05	2.14212e-05	2.16586e-05	2.26041e-05	0.382399	0.22422	8.00634	6.54977e-07	5.32166e-07	4.86416e-07	5.24088e-07	4.36347e-07	4.35323e-07	0.0627364	0.0354306	0.0720499	29.4557	56263.3	99624.5	114414	-60.5442	0.0000000E+000	0.0000000E+000	0.0000000E+000	60.5442	0.0000000E+000	0.0000000E+000	0.0000000E+000	-60.5442	0.0000000E+000	0.0000000E+000	0.0000000E+000	-29.4557	0.0000000E+000	0.0000000E+000	0.0000000E+000	29.4557	1.77068	60.5442	-7.1028e-08
12.6144	24.0215	17.3927	29.657	-35.9063	315.322	0.451042	-0.000292362	725.42	249.498	1	39	0.0050712	0.000170995	0	-8.97399e-05	1.04603	0.53256	22.866	1.73121e-05	1.92827e-05	1.75512e-05	2.39576e-05	1.63258e-05	2.49347e-05	0.435692	0.207017	5.43716	5.14177e-07	2.33839e-07	2.83636e-07	2.49238e-07	1.32645e-07	1.36333e-07	0.0273115	0.0197748	0.0337189	35.9063	249498	344589	425430	-54.0937	0.0000000E+000	0.0000000E+000	0.0000000E+000	54.0937	0.0000000E+000	0.0000000E+000	0.0000000E+000	-54.0937	0.0000000E+000	0.0000000E+000	0.0000000E+000	-35.9063	0.0000000E+000	0.0000000E+000	0.0000000E+000	35.9063	1.38113	54.0938	9.23618e-07
1.5871	55.3534	47.7988	73.135	-40.8113	336.09	0.451051	-0.000212079	2097.97	896.153	1	40	0.00505365	6.91002e-05	0	-8.89697e-05	0.603661	0.697731	13.1949	8.46248e-06	9.27924e-06	1.37399e-05	6.52434e-06	1.09232e-05	1.78028e-05	0.378937	0.118304	1.21188	2.33844e-07	3.30219e-08	2.14734e-08	9.93594e-08	2.26033e-08	2.43347e-08	0.0103489	0.00893648	0.0136733	40.8113	896153	1.03779e+06	1.37117e+06	-49.1887	0.0000000E+000	0.0000000E+000	0.0000000E+000	49.1887	0.0000000E+000	0.0000000E+000	0.0000000E+000	-49.1887	0.0000000E+000	0.0000000E+000	0.0000000E+000	-40.8113	0.0000000E+000	0.0000000E+000	0.0000000E+000	40.8113	1.15805	49.1887	7.42962e-07
[...]
251.853	10.1072	5.43005	11.4735	-28.2466	665.709	0.451052	0.000826403	116.377	26.0665	2	38	0.00490206	0.000427249	0	-0.000111883	1.43687	1.24263	31.5445	3.08761e-05	3.5859e-05	1.18434e-05	2.7754e-05	2.5053e-05	2.62257e-05	0.493258	0.249517	6.88175	1.2589e-06	9.09098e-07	2.34492e-07	4.87771e-07	7.97199e-07	7.31782e-07	0.0767784	0.0412487	0.0871572	28.2466	26066.5	48518.9	55077.6	-61.7534	0.0000000E+000	0.0000000E+000	0.0000000E+000	61.7534	0.0000000E+000	0.0000000E+000	0.0000000E+000	-61.7534	0.0000000E+000	0.0000000E+000	0.0000000E+000	-28.2466	0.0000000E+000	0.0000000E+000	0.0000000E+000	28.2466	1.86135	61.7534	6.83114e-07
31.6723	18.9267	11.7088	22.2557	-31.7426	675.725	0.451051	0.000155788	429.169	118.788	2	39	0.00490675	0.000220472	0	-0.000108257	1.1334	0.733292	32.6983	1.51594e-05	1.88029e-05	3.24603e-05	1.25472e-05	2.50051e-05	1.37989e-05	0.395782	0.171335	5.75687	5.58916e-07	2.39371e-07	2.93574e-07	4.00974e-07	2.3567e-07	2.24226e-07	0.0382114	0.0236391	0.0449324	31.7426	118788	192014	225788	-58.2574	0.0000000E+000	0.0000000E+000	0.0000000E+000	58.2574	0.0000000E+000	0.0000000E+000	0.0000000E+000	-58.2574	0.0000000E+000	0.0000000E+000	0.0000000E+000	-31.7426	0.0000000E+000	0.0000000E+000	0.0000000E+000	31.7426	1.61645	58.2574	1.19628e-07
3.98597	39.425	30.8363	50.0521	-38.0308	687.254	0.451041	0.000205082	1294.86	491.478	2	39	0.00490684	9.80345e-05	0	-0.000107898	1.3796	0.648843	15.5284	2.50713e-05	2.47441e-05	1.02564e-05	1.54092e-05	3.29026e-05	4.19958e-05	0.605566	0.434247	6.76204	4.07687e-07	2.0469e-07	1.57486e-07	2.06602e-07	1.24407e-07	2.29696e-07	0.0157372	0.0123089	0.0199792	38.0308	491478	628367	797744	-51.9692	0.0000000E+000	0.0000000E+000	0.0000000E+000	51.9692	0.0000000E+000	0.0000000E+000	0.0000000E+000	-51.9692	0.0000000E+000	0.0000000E+000	0.0000000E+000	-38.0308	0.0000000E+000	0.0000000E+000	0.0000000E+000	38.0308	1.27853	51.9692	-1.56339e-06
0.501541	95.3258	85.1931	127.847	-41.7873	742.987	0.451028	0.000199298	3724.86	1654	2	40	0.00490366	3.83557e-05	0	-0.000106511	0.407417	0.330617	7.60817	5.57529e-06	7.78783e-06	7.28348e-06	8.75454e-06	7.98407e-06	6.30488e-06	0.492609	0.308476	1.43397	1.68409e-07	3.9742e-08	3.86119e-08	4.8877e-08	2.14134e-08	2.42856e-08	0.00583216	0.00521222	0.00782185	41.7873	1.654e+06	1.85073e+06	2.48212e+06	-48.2127	0.0000000E+000	0.0000000E+000	0.0000000E+000	48.2127	0.0000000E+000	0.0000000E+000	0.0000000E+000	-48.2127	0.0000000E+000	0.0000000E+000	0.0000000E+000	-41.7873	0.0000000E+000	0.0000000E+000	0.0000000E+000	41.7873	1.11894	48.2127	7.6422e-07
0.0999518	202.607	189.027	277.094	-43.014	990.859	0.451063	0.000401947	8423.74	3920.13	2	41	0.00490291	1.7694e-05	0	-7.74683e-05	0.249413	0.185071	5.9846	5.72716e-06	6.42799e-06	1.4561e-06	1.89481e-06	5.7708e-06	4.66435e-06	0.474934	0.177201	1.04853	7.55628e-08	1.2328e-08	5.88612e-09	2.93499e-08	4.85815e-09	8.76667e-09	0.00263877	0.0024619	0.00360888	43.014	3.92013e+06	4.20175e+06	5.74649e+06	-46.986	0.0000000E+000	0.0000000E+000	0.0000000E+000	46.986	0.0000000E+000	0.0000000E+000	0.0000000E+000	-46.986	0.0000000E+000	0.0000000E+000	0.0000000E+000	-43.014	0.0000000E+000	0.0000000E+000	0.0000000E+000	43.014	1.07184	46.986	1.16248e-05