Folder: Thesis/Python/Data/GoldElectrode/240308 (part 2)

File: 240308-CVEIS_Activation-0p5H2SO4-Ag_AgCl_BLF8-Au_RDE-80cycles-C15_02_PEIS_C15.mpt
EC-Lab ASCII FILE
Nb header lines : 66

Potentio Electrochemical Impedance Spectroscopy

Run on channel : 15 (SN 19485)
User :
Electrode connection : standard
Potential control : Ewe
Ewe ctrl range : min = -2.50 V, max = 2.50 V
Ewe,I filtering : 50 kHz
Safety Limits :
	Do not start on E overload
Channel : Floating
Acquisition started on : 03/08/2024 16:29:18.805
Loaded Setting File :  NONE
Saved on :
	File : 240308-CVEIS_Activation-0p5H2SO4-Ag_AgCl_BLF8-Au_RDE-80cycles-C15_02_PEIS_C15.mpr
	Directory : C:\Data\mathias\GoldElectrode\
	Host : 192.168.0.1
Device : VMP-300 (SN 0826)
Address : USB
EC-Lab for windows v11.52 (software)
Internet server v11.52 (firmware)
Command interpretor v11.52 (firmware)
Electrode material :
Initial state :
Electrolyte :
Comments :
Cable : special
Electrode surface area : 0.001 cm²
Characteristic mass : 0.001 g
Equivalent Weight : 0.000 g/eq.
Density : 0.000 g/cm3
Volume (V) : 0.001 cm³
Record EIS quality indicators
Cycle Definition : Charge/Discharge alternance
Mode                Single sine
E (V)               0.0000
vs.                 Eoc
tE (h:m:s)          0:00:0.0000
record              0
dI                  0.000
unit dI             mA
dt (s)              0.000
fi                  100.000
unit fi             kHz
ff                  100.000
unit ff             Hz
Nd                  10
Points              per decade
spacing             Logarithmic
Va (mV)             5.0
pw                  0.10
Na                  2
corr                0
E range min (V)     -2.500
E range max (V)     2.500
I Range             Auto
Bandwidth           8
nc cycles           1
goto Ns'            0
nr cycles           0
inc. cycle          0

freq/Hz	Re(Z)/Ohm	-Im(Z)/Ohm	|Z|/Ohm	Phase(Z)/deg	time/s	<Ewe>/V	<I>/mA	Cs/µF	Cp/µF	cycle number	I Range	|Ewe|/V	|I|/A	Ns	(Q-Qo)/mA.h	THD Ewe/%	NSD Ewe/%	NSR Ewe/%	|Ewe h2|/V	|Ewe h3|/V	|Ewe h4|/V	|Ewe h5|/V	|Ewe h6|/V	|Ewe h7|/V	THD I/%	NSD I/%	NSR I/%	|I h2|/A	|I h3|/A	|I h4|/A	|I h5|/A	|I h6|/A	|I h7|/A	Re(Y)/Ohm-1	Im(Y)/Ohm-1	|Y|/Ohm-1	Phase(Y)/deg	Re(C)/nF	Im(C)/nF	|C|/nF	Phase(C)/deg	Re(M)	Im(M)	|M|	Phase(M)/deg	Re(Permittivity)	Im(Permittivity)	|Permittivity|	Phase(Permittivity)/deg	Re(Resistivity)/Ohm.cm	Im(Resistivity)/Ohm.cm	|Resistivity|/Ohm.cm	Phase(Resistivity)/deg	Re(Conductivity)/mS/cm	Im(Conductivity)/mS/cm	|Conductivity|/mS/cm	Phase(Conductivity)/deg	Tan(Delta)	Loss Angle(Delta)/deg	dq/mA.h
100004	6.14005	0.674188	6.17695	-6.26608	362.765	0.39917	-0.0223026	2.3606	0.0281214	1	38	0.00481371	0.000779302	0	-8.08917e-06	1.63699	0.977028	31.4608	1.35233e-05	2.18961e-05	3.68635e-05	3.37388e-05	4.5226e-05	2.68879e-05	0.215698	0.129949	4.09077	8.33648e-07	6.52481e-07	6.63057e-07	8.09707e-07	6.06235e-07	1.84679e-07	0.160925	0.0176699	0.161892	6.26608	28.1214	256.111	257.65	-83.7339	0.0000000E+000	0.0000000E+000	0.0000000E+000	83.7339	0.0000000E+000	0.0000000E+000	0.0000000E+000	-83.7339	0.0000000E+000	0.0000000E+000	0.0000000E+000	-6.26608	0.0000000E+000	0.0000000E+000	0.0000000E+000	6.26608	9.10732	83.7339	-8.08917e-06
39814.1	6.23921	0.899042	6.30365	-8.19962	366.022	0.399138	-0.0111384	4.44635	0.0904438	1	38	0.00516244	0.000818961	0	-1.87432e-05	1.60492	0.811225	29.0901	2.28094e-05	3.50301e-05	3.72139e-05	2.83408e-05	1.82608e-05	4.22336e-05	0.158702	0.107142	3.90039	7.96636e-07	3.74466e-07	3.73546e-07	6.0173e-07	4.47799e-07	3.44265e-07	0.157016	0.0226254	0.158638	8.19962	90.4438	627.666	634.149	-81.8004	0.0000000E+000	0.0000000E+000	0.0000000E+000	81.8004	0.0000000E+000	0.0000000E+000	0.0000000E+000	-81.8004	0.0000000E+000	0.0000000E+000	0.0000000E+000	-8.19962	0.0000000E+000	0.0000000E+000	0.0000000E+000	8.19962	6.93985	81.8004	-3.43572e-06
15847.7	6.61587	1.7074	6.83263	-14.471	369.278	0.399167	-0.0106431	5.88191	0.367294	1	38	0.00513123	0.000750988	0	-2.73429e-05	2.18397	0.670142	30.7804	2.22437e-05	1.80739e-05	5.24385e-05	5.45376e-05	3.7941e-05	5.49598e-05	0.321639	0.0830154	4.26935	6.37811e-07	8.66817e-07	8.19906e-07	6.23914e-07	9.55572e-07	1.47376e-06	0.141713	0.0365729	0.146356	14.471	367.294	1423.2	1469.83	-75.529	0.0000000E+000	0.0000000E+000	0.0000000E+000	75.529	0.0000000E+000	0.0000000E+000	0.0000000E+000	-75.529	0.0000000E+000	0.0000000E+000	0.0000000E+000	-14.471	0.0000000E+000	0.0000000E+000	0.0000000E+000	14.471	3.87481	75.529	-2.69538e-06
6307.74	7.40874	3.39239	8.14848	-24.6026	372.654	0.399077	-0.00996723	7.43773	1.28914	1	38	0.00500433	0.000614142	0	-3.63715e-05	2.24107	0.288733	30.6	2.95962e-05	8.99355e-05	2.01453e-05	1.62103e-05	2.03973e-05	4.42172e-05	0.483622	0.121199	5.03733	3.61411e-07	2.4075e-06	5.8602e-07	1.03973e-06	7.7235e-07	7.36338e-07	0.111581	0.0510919	0.122722	24.6026	1289.14	2815.38	3096.49	-65.3974	0.0000000E+000	0.0000000E+000	0.0000000E+000	65.3974	0.0000000E+000	0.0000000E+000	0.0000000E+000	-65.3974	0.0000000E+000	0.0000000E+000	0.0000000E+000	-24.6026	0.0000000E+000	0.0000000E+000	0.0000000E+000	24.6026	2.18393	65.3974	-2.77549e-06
2512.41	9.03802	6.12459	10.9177	-34.1234	375.639	0.399029	-0.00968794	10.3431	3.25494	1	38	0.00545545	0.000499688	0	-4.44432e-05	1.4202	0.787517	27.7003	2.67745e-05	3.6044e-05	4.12907e-05	2.13978e-05	2.07207e-05	3.30474e-05	0.325124	0.213223	6.42354	6.20604e-07	8.2846e-07	5.66341e-08	7.45946e-07	6.17606e-07	6.64437e-07	0.0758246	0.0513824	0.0915943	34.1234	3254.94	4803.3	5802.27	-55.8766	0.0000000E+000	0.0000000E+000	0.0000000E+000	55.8766	0.0000000E+000	0.0000000E+000	0.0000000E+000	-55.8766	0.0000000E+000	0.0000000E+000	0.0000000E+000	-34.1234	0.0000000E+000	0.0000000E+000	0.0000000E+000	34.1234	1.47569	55.8766	-2.19259e-06
999.682	11.1831	11.4998	16.0408	-45.7999	378.613	0.399041	-0.00871974	13.8442	7.11537	1	38	0.00531607	0.00033141	0	-5.14404e-05	1.1689	0.981652	29.0112	1.99775e-05	2.24411e-05	2.76546e-05	1.52024e-05	2.02879e-05	3.81699e-05	0.667959	0.20999	9.58773	1.54039e-06	4.79889e-07	1.0519e-06	6.7136e-07	3.83341e-07	2.85661e-07	0.0434621	0.0446929	0.0623411	45.7999	7115.37	6919.41	9925.05	-44.2001	0.0000000E+000	0.0000000E+000	0.0000000E+000	44.2001	0.0000000E+000	0.0000000E+000	0.0000000E+000	-44.2001	0.0000000E+000	0.0000000E+000	0.0000000E+000	-45.7999	0.0000000E+000	0.0000000E+000	0.0000000E+000	45.7999	0.972461	44.2001	-1.60775e-06
398.089	13.9115	23.8134	27.5791	-59.7071	381.589	0.399045	-0.00758024	16.7888	12.517	1	38	0.00524042	0.000190014	0	-5.73744e-05	1.21708	0.919415	29.6708	2.42625e-05	1.7957e-05	1.60463e-05	2.70539e-05	3.41002e-05	2.30931e-05	0.980191	0.449694	16.7978	5.15412e-07	8.44202e-07	6.20134e-07	7.97528e-07	9.70752e-07	5.29915e-07	0.01829	0.0313084	0.0362593	59.7071	12517	7312.28	14496.4	-30.2929	0.0000000E+000	0.0000000E+000	0.0000000E+000	30.2929	0.0000000E+000	0.0000000E+000	0.0000000E+000	-30.2929	0.0000000E+000	0.0000000E+000	0.0000000E+000	-59.7071	0.0000000E+000	0.0000000E+000	0.0000000E+000	59.7071	0.584187	30.2929	-1.45645e-06
[...]
1995.64	9.57176	7.23826	12.0005	-37.0969	401.356	0.399027	-0.00632901	11.018	4.00845	2	38	0.0054423	0.000453508	0	-8.87944e-05	1.60378	2.03501	28.5812	3.55699e-05	3.12736e-05	2.75532e-05	4.88771e-05	2.02909e-05	3.71191e-05	0.395503	0.489102	7.04131	1.02144e-06	6.17655e-07	6.20234e-07	1.07266e-06	3.38325e-07	2.50157e-07	0.0664655	0.0502618	0.0833301	37.0969	4008.45	5300.72	6645.7	-52.9031	0.0000000E+000	0.0000000E+000	0.0000000E+000	52.9031	0.0000000E+000	0.0000000E+000	0.0000000E+000	-52.9031	0.0000000E+000	0.0000000E+000	0.0000000E+000	-37.0969	0.0000000E+000	0.0000000E+000	0.0000000E+000	37.0969	1.32238	52.9031	-8.77841e-07
794.239	11.807	13.839	18.1913	-49.5301	404.33	0.399002	-0.00554701	14.4799	8.38002	2	38	0.00527031	0.000289716	0	-9.38977e-05	1.33719	1.0114	28.263	4.06008e-05	2.80596e-05	1.69621e-05	1.59518e-05	1.58794e-05	2.43838e-05	0.878057	0.363929	10.9518	1.93967e-06	8.41332e-07	6.96265e-07	1.12539e-06	2.76236e-07	1.78333e-07	0.0356791	0.0418193	0.0549714	49.5301	8380.02	7149.61	11015.5	-40.4699	0.0000000E+000	0.0000000E+000	0.0000000E+000	40.4699	0.0000000E+000	0.0000000E+000	0.0000000E+000	-40.4699	0.0000000E+000	0.0000000E+000	0.0000000E+000	-49.5301	0.0000000E+000	0.0000000E+000	0.0000000E+000	49.5301	0.853174	40.4699	-1.38944e-06
316.316	14.8933	29.3662	32.9269	-63.1078	407.555	0.399027	-0.000686834	17.1337	13.6284	2	39	0.00539427	0.000163826	0	-9.68216e-05	1.26661	0.757634	26.6964	1.09667e-05	2.77889e-05	2.64697e-05	1.52095e-05	2.52763e-05	4.15476e-05	0.819109	0.196835	8.33554	9.14454e-07	3.10498e-07	3.83902e-07	6.06084e-07	2.75727e-07	4.70567e-07	0.0137369	0.027086	0.0303703	63.1078	13628.4	6911.74	15280.9	-26.8922	0.0000000E+000	0.0000000E+000	0.0000000E+000	26.8922	0.0000000E+000	0.0000000E+000	0.0000000E+000	-26.8922	0.0000000E+000	0.0000000E+000	0.0000000E+000	-63.1078	0.0000000E+000	0.0000000E+000	0.0000000E+000	63.1078	0.507158	26.8922	-5.17386e-07
125.927	19.7234	65.5728	68.4748	-73.2594	410.532	0.399037	-0.000572959	19.2743	17.6752	2	39	0.00523748	7.64877e-05	0	-9.73367e-05	1.67862	1.01672	27.7615	3.54345e-05	3.1115e-05	2.84463e-05	2.80025e-05	4.09107e-05	2.77068e-05	1.07114	0.52443	17.7776	4.6085e-07	3.47577e-07	2.96241e-07	2.91416e-07	1.58759e-07	2.67012e-07	0.00420649	0.013985	0.0146039	73.2594	17675.2	5316.46	18457.4	-16.7406	0.0000000E+000	0.0000000E+000	0.0000000E+000	16.7406	0.0000000E+000	0.0000000E+000	0.0000000E+000	-16.7406	0.0000000E+000	0.0000000E+000	0.0000000E+000	-73.2594	0.0000000E+000	0.0000000E+000	0.0000000E+000	73.2594	0.300787	16.7406	-1.9787e-07
99.9682	21.9411	81.0154	83.9339	-74.8463	411.263	0.399065	-0.000667267	19.6513	18.3084	2	39	0.0052323	6.23384e-05	0	-9.74387e-05	1.48261	0.817895	27.0964	2.44125e-05	1.02402e-05	2.16205e-05	2.0067e-05	5.12931e-05	4.10028e-05	0.984208	0.649517	21.8716	3.61639e-07	2.21951e-07	2.01434e-07	1.23526e-07	2.68868e-07	2.4579e-07	0.00311446	0.0114999	0.0119141	74.8463	18308.4	4958.4	18968	-15.1537	0.0000000E+000	0.0000000E+000	0.0000000E+000	15.1537	0.0000000E+000	0.0000000E+000	0.0000000E+000	-15.1537	0.0000000E+000	0.0000000E+000	0.0000000E+000	-74.8463	0.0000000E+000	0.0000000E+000	0.0000000E+000	74.8463	0.270826	15.1537	-1.0202e-07

File: 240308-CVEIS_Activation-0p5H2SO4-Ag_AgCl_BLF8-Au_RDE-80cycles-C15_04_PEIS_C15.mpt
EC-Lab ASCII FILE
Nb header lines : 66

Potentio Electrochemical Impedance Spectroscopy

Run on channel : 15 (SN 19485)
User :
Electrode connection : standard
Potential control : Ewe
Ewe ctrl range : min = -2.50 V, max = 2.50 V
Ewe,I filtering : 50 kHz
Safety Limits :
	Do not start on E overload
Channel : Floating
Acquisition started on : 03/08/2024 16:29:18.805
Loaded Setting File :  NONE
Saved on :
	File : 240308-CVEIS_Activation-0p5H2SO4-Ag_AgCl_BLF8-Au_RDE-80cycles-C15_04_PEIS_C15.mpr
	Directory : C:\Data\mathias\GoldElectrode\
	Host : 192.168.0.1
Device : VMP-300 (SN 0826)
Address : USB
EC-Lab for windows v11.52 (software)
Internet server v11.52 (firmware)
Command interpretor v11.52 (firmware)
Electrode material :
Initial state :
Electrolyte :
Comments :
Cable : special
Electrode surface area : 0.001 cm²
Characteristic mass : 0.001 g
Equivalent Weight : 0.000 g/eq.
Density : 0.000 g/cm3
Volume (V) : 0.001 cm³
Record EIS quality indicators
Cycle Definition : Charge/Discharge alternance
Mode                Single sine
E (V)               0.0000
vs.                 Eoc
tE (h:m:s)          0:00:0.0000
record              0
dI                  0.000
unit dI             mA
dt (s)              0.000
fi                  100.000
unit fi             kHz
ff                  100.000
unit ff             Hz
Nd                  10
Points              per decade
spacing             Logarithmic
Va (mV)             5.0
pw                  0.10
Na                  2
corr                0
E range min (V)     -2.500
E range max (V)     2.500
I Range             Auto
Bandwidth           8
nc cycles           1
goto Ns'            0
nr cycles           0
inc. cycle          0

freq/Hz	Re(Z)/Ohm	-Im(Z)/Ohm	|Z|/Ohm	Phase(Z)/deg	time/s	<Ewe>/V	<I>/mA	Cs/µF	Cp/µF	cycle number	I Range	|Ewe|/V	|I|/A	Ns	(Q-Qo)/mA.h	THD Ewe/%	NSD Ewe/%	NSR Ewe/%	|Ewe h2|/V	|Ewe h3|/V	|Ewe h4|/V	|Ewe h5|/V	|Ewe h6|/V	|Ewe h7|/V	THD I/%	NSD I/%	NSR I/%	|I h2|/A	|I h3|/A	|I h4|/A	|I h5|/A	|I h6|/A	|I h7|/A	Re(Y)/Ohm-1	Im(Y)/Ohm-1	|Y|/Ohm-1	Phase(Y)/deg	Re(C)/nF	Im(C)/nF	|C|/nF	Phase(C)/deg	Re(M)	Im(M)	|M|	Phase(M)/deg	Re(Permittivity)	Im(Permittivity)	|Permittivity|	Phase(Permittivity)/deg	Re(Resistivity)/Ohm.cm	Im(Resistivity)/Ohm.cm	|Resistivity|/Ohm.cm	Phase(Resistivity)/deg	Re(Conductivity)/mS/cm	Im(Conductivity)/mS/cm	|Conductivity|/mS/cm	Phase(Conductivity)/deg	Tan(Delta)	Loss Angle(Delta)/deg	dq/mA.h
100004	6.15399	0.664888	6.18981	-6.16641	774.134	0.399127	-0.0221592	2.39362	0.0276184	1	38	0.00488152	0.000788638	0	-8.79009e-06	1.27305	1.06534	31.7816	2.30168e-05	2.60212e-05	2.68735e-05	1.91252e-05	2.17507e-05	2.58516e-05	0.249283	0.121356	3.98591	2.81833e-07	7.99728e-07	8.11406e-07	5.73832e-07	9.0169e-07	7.61957e-07	0.160621	0.0173538	0.161556	6.16641	27.6184	255.627	257.115	-83.8336	0.0000000E+000	0.0000000E+000	0.0000000E+000	83.8336	0.0000000E+000	0.0000000E+000	0.0000000E+000	-83.8336	0.0000000E+000	0.0000000E+000	0.0000000E+000	-6.16641	0.0000000E+000	0.0000000E+000	0.0000000E+000	6.16641	9.25569	83.8336	-8.79009e-06
39814.1	6.25003	0.878922	6.31153	-8.00483	777.39	0.399159	-0.0112836	4.54813	0.0881992	1	38	0.00513311	0.000813291	0	-1.9639e-05	1.74188	0.82818	30.6678	2.15207e-05	1.93573e-05	1.67869e-05	5.62886e-05	4.82237e-05	3.02218e-05	0.284653	0.139976	3.76754	7.6123e-07	1.20006e-06	5.25218e-07	1.34737e-06	8.20709e-07	7.37479e-07	0.156896	0.0220638	0.15844	8.00483	88.1992	627.186	633.358	-81.9952	0.0000000E+000	0.0000000E+000	0.0000000E+000	81.9952	0.0000000E+000	0.0000000E+000	0.0000000E+000	-81.9952	0.0000000E+000	0.0000000E+000	0.0000000E+000	-8.00483	0.0000000E+000	0.0000000E+000	0.0000000E+000	8.00483	7.11102	81.9952	-2.43248e-06
15847.7	6.56089	1.59516	6.75202	-13.6653	780.647	0.399148	-0.0107809	6.29578	0.351392	1	38	0.00512891	0.000759611	0	-2.85111e-05	1.31932	0.903561	29.1764	2.24284e-05	2.84248e-05	2.07405e-05	2.38879e-05	1.82922e-05	3.74663e-05	0.277337	0.118806	4.06186	5.90214e-07	5.45109e-07	6.08624e-07	9.46283e-07	8.41527e-07	1.09326e-06	0.143911	0.0349895	0.148104	13.6653	351.392	1445.27	1487.38	-76.3347	0.0000000E+000	0.0000000E+000	0.0000000E+000	76.3347	0.0000000E+000	0.0000000E+000	0.0000000E+000	-76.3347	0.0000000E+000	0.0000000E+000	0.0000000E+000	-13.6653	0.0000000E+000	0.0000000E+000	0.0000000E+000	13.6653	4.11299	76.3347	-2.33197e-06
6307.74	7.38821	3.15624	8.03415	-23.1322	784.023	0.399026	-0.00947195	7.99423	1.23378	1	38	0.00513624	0.000639301	0	-3.64418e-05	1.68908	0.487574	28.9673	2.68732e-05	3.04661e-05	3.96942e-05	2.28371e-05	3.67961e-05	3.93331e-05	0.255082	0.207032	4.83803	2.93807e-07	1.05085e-06	2.41648e-07	5.18994e-07	4.63108e-07	8.46158e-07	0.114462	0.0488979	0.124469	23.1322	1233.78	2888.06	3140.56	-66.8678	0.0000000E+000	0.0000000E+000	0.0000000E+000	66.8678	0.0000000E+000	0.0000000E+000	0.0000000E+000	-66.8678	0.0000000E+000	0.0000000E+000	0.0000000E+000	-23.1322	0.0000000E+000	0.0000000E+000	0.0000000E+000	23.1322	2.34083	66.8678	-2.54451e-06
2512.41	8.76658	5.83646	10.5317	-33.6542	787.23	0.399003	-0.00939934	10.8538	3.33334	1	38	0.00516977	0.000490876	0	-4.48916e-05	1.50493	1.54696	29.2207	1.98375e-05	3.45504e-05	2.15782e-05	2.76079e-05	4.06219e-05	3.20922e-05	0.465846	0.290858	6.43574	4.31745e-07	1.4364e-06	8.71196e-07	6.36365e-07	5.31136e-07	9.94347e-07	0.0790372	0.05262	0.0949512	33.6542	3333.34	5006.81	6014.92	-56.3458	0.0000000E+000	0.0000000E+000	0.0000000E+000	56.3458	0.0000000E+000	0.0000000E+000	0.0000000E+000	-56.3458	0.0000000E+000	0.0000000E+000	0.0000000E+000	-33.6542	0.0000000E+000	0.0000000E+000	0.0000000E+000	33.6542	1.50204	56.3458	-1.86185e-06
999.682	10.7197	11.131	15.4535	-46.0783	790.203	0.399006	-0.00799917	14.303	7.42059	1	38	0.00502051	0.000324879	0	-5.24035e-05	1.62403	0.984802	29.8115	2.50759e-05	2.72438e-05	5.11192e-05	1.17773e-05	3.62915e-05	1.91274e-05	0.716271	0.355454	9.60152	1.36293e-06	1.25607e-06	7.5534e-07	4.9998e-07	7.57172e-07	5.00966e-07	0.044888	0.0466101	0.0647103	46.0783	7420.59	7146.42	10302.3	-43.9217	0.0000000E+000	0.0000000E+000	0.0000000E+000	43.9217	0.0000000E+000	0.0000000E+000	0.0000000E+000	-43.9217	0.0000000E+000	0.0000000E+000	0.0000000E+000	-46.0783	0.0000000E+000	0.0000000E+000	0.0000000E+000	46.0783	0.963053	43.9218	-1.78876e-06
398.089	13.2043	23.2718	26.7568	-60.4297	793.178	0.399061	-0.00649846	17.1795	12.9957	1	38	0.00493363	0.000184387	0	-5.69398e-05	1.67723	0.976136	31.015	1.12049e-05	2.88411e-05	1.97277e-05	3.02435e-05	3.01708e-05	4.37283e-05	0.929852	0.64196	17.3444	9.39705e-07	4.88582e-07	7.67143e-07	5.59507e-07	2.56954e-07	7.99426e-07	0.0184436	0.0325057	0.0373736	60.4297	12995.7	7373.69	14941.9	-29.5703	0.0000000E+000	0.0000000E+000	0.0000000E+000	29.5703	0.0000000E+000	0.0000000E+000	0.0000000E+000	-29.5703	0.0000000E+000	0.0000000E+000	0.0000000E+000	-60.4297	0.0000000E+000	0.0000000E+000	0.0000000E+000	60.4297	0.567394	29.5703	-1.03105e-06
[...]
1995.64	9.15304	6.88317	11.4523	-36.9435	812.94	0.399039	-0.00626198	11.5864	4.18541	2	38	0.00543257	0.000474363	0	-8.66935e-05	1.75746	0.834544	27.2453	3.73987e-05	6.04791e-05	2.69498e-05	2.48144e-05	2.61786e-05	4.03679e-05	0.43725	0.308923	6.49193	1.07335e-06	4.6822e-07	6.23503e-07	1.26937e-06	4.07317e-07	6.48848e-07	0.0697873	0.0524807	0.0873183	36.9435	4185.41	5565.64	6963.76	-53.0565	0.0000000E+000	0.0000000E+000	0.0000000E+000	53.0565	0.0000000E+000	0.0000000E+000	0.0000000E+000	-53.0565	0.0000000E+000	0.0000000E+000	0.0000000E+000	-36.9435	0.0000000E+000	0.0000000E+000	0.0000000E+000	36.9435	1.32977	53.0565	-9.25143e-07
794.239	11.3167	13.2965	17.4604	-49.5987	815.913	0.398991	-0.00532544	15.0706	8.73974	2	38	0.00529088	0.000303022	0	-9.1834e-05	1.19606	0.91641	28.5935	4.00748e-05	1.72065e-05	1.20256e-05	9.67661e-06	1.54422e-05	3.81562e-05	0.744249	0.367559	10.3963	1.5841e-06	5.83606e-07	7.34975e-07	7.88667e-07	7.81903e-07	3.82366e-07	0.0371204	0.0436144	0.0572725	49.5987	8739.74	7438.43	11476.6	-40.4013	0.0000000E+000	0.0000000E+000	0.0000000E+000	40.4013	0.0000000E+000	0.0000000E+000	0.0000000E+000	-40.4013	0.0000000E+000	0.0000000E+000	0.0000000E+000	-49.5987	0.0000000E+000	0.0000000E+000	0.0000000E+000	49.5987	0.851105	40.4013	-1.31617e-06
316.316	14.1767	28.9368	32.2229	-63.8988	819.138	0.399054	-0.000591221	17.388	14.0223	2	39	0.00544413	0.000168952	0	-9.46992e-05	1.37409	0.838383	26.9262	3.20294e-05	1.17423e-05	3.20657e-05	2.35971e-05	2.68008e-05	4.08945e-05	0.676785	0.255244	8.22458	8.72527e-07	2.72859e-07	2.37293e-07	4.5636e-07	1.18186e-07	3.12392e-07	0.0136536	0.0278689	0.0310338	63.8988	14022.3	6869.82	15614.7	-26.1012	0.0000000E+000	0.0000000E+000	0.0000000E+000	26.1012	0.0000000E+000	0.0000000E+000	0.0000000E+000	-26.1012	0.0000000E+000	0.0000000E+000	0.0000000E+000	-63.8988	0.0000000E+000	0.0000000E+000	0.0000000E+000	63.8988	0.489921	26.1012	-4.82287e-07
125.927	18.7626	64.9226	67.5794	-73.8808	822.115	0.399046	-0.000732872	19.4673	17.9667	2	39	0.00526868	7.79628e-05	0	-9.5135e-05	1.44779	0.871095	28.1069	3.33963e-05	3.13747e-05	3.80013e-05	3.34492e-05	1.65623e-05	2.26244e-05	1.35382	0.423617	18.1462	8.02499e-07	3.08376e-07	2.8597e-07	3.33043e-07	1.87032e-07	2.20655e-07	0.00410831	0.0142157	0.0147974	73.8808	17966.7	5192.37	18702	-16.1192	0.0000000E+000	0.0000000E+000	0.0000000E+000	16.1192	0.0000000E+000	0.0000000E+000	0.0000000E+000	-16.1192	0.0000000E+000	0.0000000E+000	0.0000000E+000	-73.8808	0.0000000E+000	0.0000000E+000	0.0000000E+000	73.8808	0.288999	16.1192	-2.06844e-07
99.9682	20.7494	79.9917	82.639	-75.4583	822.846	0.399023	-0.000445848	19.9028	18.648	2	39	0.0052513	6.3545e-05	0	-9.52144e-05	1.51638	0.816291	27.5417	3.32637e-05	3.74102e-05	3.27742e-05	3.79741e-05	1.55093e-05	2.16947e-05	1.30518	0.727147	21.7643	5.79658e-07	2.62741e-07	2.43772e-07	1.71177e-07	2.37372e-07	2.99326e-07	0.00303833	0.0117132	0.0121008	75.4583	18648	4837.19	19265.2	-14.5417	0.0000000E+000	0.0000000E+000	0.0000000E+000	14.5417	0.0000000E+000	0.0000000E+000	0.0000000E+000	-14.5417	0.0000000E+000	0.0000000E+000	0.0000000E+000	-75.4583	0.0000000E+000	0.0000000E+000	0.0000000E+000	75.4583	0.259394	14.5417	-7.93598e-08