Folder: Thesis/Python/Data/GoldElectrode/240313 (part 8)

File: 240313-CVEIS_PostActivation-Fe2Fe3_5mM-HCl1M-2000RPM-Ag_AgCl_BLF8-Au_RDE_01_CV_C15.mpt
EC-Lab ASCII FILE
Nb header lines : 60

Cyclic Voltammetry

Run on channel : 15 (SN 19485)
User :
Electrode connection : standard
Potential control : Ewe
Ewe ctrl range : min = -1.00 V, max = 1.00 V
Ewe,I filtering : <None>
Safety Limits :
	Do not start on E overload
Channel : Floating
Acquisition started on : 03/13/2024 18:03:19.717
Loaded Setting File :  NONE
Saved on :
	File : 240313-CVEIS_PostActivation-Fe2Fe3_5mM-HCl1M-2000RPM-Ag_AgCl_BLF8-Au_RDE_01_CV_C15.mpr
	Directory : C:\Data\mathias\GoldElectrode\
	Host : 192.168.0.1
Device : VMP-300 (SN 0826)
Address : USB
EC-Lab for windows v11.52 (software)
Internet server v11.52 (firmware)
Command interpretor v11.52 (firmware)
Electrode material :
Initial state :
Electrolyte :
Comments :
Cable : special
Electrode surface area : 0.001 cm²
Characteristic mass : 0.001 g
Equivalent Weight : 0.000 g/eq.
Density : 0.000 g/cm3
Volume (V) : 0.001 cm³
Record EIS quality indicators
Cycle Definition : Charge/Discharge alternance
Ei (V)              0.000
vs.                 Eoc
dE/dt               20.000
dE/dt unit          mV/s
E1 (V)              0.700
vs.                 Ref
Step percent        50
N                   10
E range min (V)     -1.000
E range max (V)     1.000
I Range             Auto
I Range min         Unset
I Range max         Unset
I Range init        Unset
Bandwidth           8
E2 (V)              0.000
vs.                 Ref
nc cycles           1
Reverse Scan        1
Ef (V)              0.000
vs.                 Eoc

mode	ox/red	error	control changes	counter inc.	time/s	control/V	Ewe/V	<I>/mA	cycle number	(Q-Qo)/C	I Range	step time/s	P/W
2	1	0	1	0	0.000000000000000E+000	0.441588	0.440705	0.00675576	1	0.0000000E+000	42	0.000000000000000E+000	2.9773e-06
2	1	0	1	0	1.1682	0.464951	0.464638	0.0851132	1	5.37034e-05	41	1.1544	3.95469e-05
2	1	0	1	0	2.3477	0.48854	0.488234	0.16225	1	0.000200375	40	2.3339	7.92158e-05
2	1	0	1	0	3.4972	0.511531	0.511072	0.231619	1	0.000428002	40	3.4834	0.000118374
2	1	0	1	0	4.6466	0.534518	0.534185	0.293602	1	0.000731114	40	4.6328	0.000156838
2	1	0	1	0	5.796	0.557507	0.557114	0.348985	1	0.00110132	40	5.7822	0.000194425
2	1	0	1	0	6.9455	0.580497	0.580041	0.399757	1	0.00153221	40	6.9317	0.000231875
2	1	0	1	0	8.095	0.603486	0.60321	0.445344	1	0.00201839	40	8.0812	0.000268636
2	1	0	1	0	9.2444	0.626475	0.62602	0.488278	1	0.00255576	40	9.2306	0.000305672
2	1	0	1	0	10.3939	0.649464	0.649246	0.528389	1	0.00314088	40	10.3801	0.000343054
2	1	0	1	0	11.5433	0.672453	0.672204	0.569583	1	0.00377223	40	11.5295	0.000382876
2	1	0	1	0	12.6928	0.695442	0.695356	0.605339	1	0.00444696	40	12.679	0.000420926
2	1	0	1	0	13.8104	0.682248	0.682026	0.607184	1	0.00512838	40	13.7966	0.000414115
2	1	0	1	0	14.9599	0.659259	0.658888	0.590939	1	0.00581666	40	14.9461	0.000389363
2	1	0	1	0	16.1093	0.63627	0.6358	0.572301	1	0.00648498	40	16.0955	0.000363869
2	1	0	1	0	17.2588	0.613281	0.613001	0.549488	1	0.00712954	40	17.245	0.000336837
2	1	0	1	0	18.4082	0.590292	0.589908	0.520965	1	0.00774432	40	18.3944	0.000307321
2	1	0	1	0	19.5577	0.567303	0.566894	0.481857	1	0.00832085	40	19.5439	0.000273162
2	1	0	1	0	20.7071	0.544314	0.543855	0.430637	1	0.00884626	40	20.6933	0.000234204
2	1	0	1	0	21.8566	0.521325	0.521166	0.361619	1	0.00930258	40	21.8428	0.000188464
2	1	0	1	0	23.006	0.498336	0.497961	0.273205	1	0.00966845	40	22.9922	0.000136045
2	1	0	1	0	24.1555	0.475347	0.475188	0.168036	1	0.00992248	40	24.1417	7.98485e-05
2	1	0	1	0	25.305	0.452356	0.452084	0.0557041	1	0.01005	40	25.2912	2.51829e-05
2	0	0	1	0	26.4844	0.428769	0.428142	-0.0512816	1	0.0100505	41	0.5747	-2.19558e-05
2	0	0	1	0	27.6638	0.40518	0.404879	-0.136311	1	0.00993704	40	1.7541	-5.51894e-05
2	0	0	1	0	28.8133	0.382191	0.381882	-0.199224	1	0.00974093	40	2.9036	-7.60801e-05
2	0	0	1	0	29.9627	0.359202	0.358855	-0.24521	1	0.00948246	40	4.053	-8.7995e-05
2	0	0	1	0	31.1122	0.336213	0.335803	-0.279267	1	0.00917835	40	5.2025	-9.37787e-05
2	0	0	1	0	32.2616	0.313224	0.312843	-0.303183	1	0.00884152	40	6.3519	-9.48485e-05
2	0	0	1	0	33.4111	0.290235	0.289988	-0.320914	1	0.00848066	40	7.5014	-9.30613e-05
2	0	0	1	0	34.5606	0.267245	0.266888	-0.335463	1	0.00810087	40	8.6509	-8.95308e-05
2	0	0	1	0	35.71	0.244256	0.244121	-0.349253	1	0.00770533	40	9.8003	-8.526e-05
2	0	0	1	0	36.8595	0.221267	0.220986	-0.360753	1	0.00729631	40	10.9498	-7.97215e-05
2	0	0	1	0	38.0089	0.198278	0.197841	-0.368712	1	0.00687556	40	12.0992	-7.29464e-05
2	0	0	1	0	39.1584	0.175289	0.174871	-0.37958	1	0.00644401	40	13.2487	-6.63774e-05
2	0	0	1	0	40.3078	0.1523	0.151956	-0.385359	1	0.00600364	40	14.3981	-5.85574e-05
2	0	0	1	0	41.4573	0.129311	0.129124	-0.390312	1	0.00555645	40	15.5476	-5.03987e-05
2	0	0	1	0	42.6067	0.106322	0.106058	-0.394817	1	0.00510398	40	16.697	-4.18735e-05
2	0	0	1	0	43.7562	0.0833329	0.0829786	-0.397264	1	0.00464715	40	17.8465	-3.29644e-05
2	0	0	1	0	44.9056	0.0603438	0.0599895	-0.400311	1	0.00418729	40	18.9959	-2.40144e-05
2	0	0	1	0	46.0551	0.0373548	0.0373099	-0.403107	1	0.00372451	40	20.1454	-1.50399e-05
2	0	0	1	0	47.2046	0.0143639	0.0140595	-0.405469	1	0.00326017	40	21.2949	-5.70072e-06
2	0	0	1	1	48.3119	0.00776883	0.00756299	-0.405661	1	0.00281124	40	22.4022	-3.06801e-06
2	0	0	1	1	49.4614	0.0307579	0.0306177	-0.400765	1	0.00234875	40	23.5517	-1.22705e-05
2	0	0	1	1	50.6108	0.053747	0.0535035	-0.397086	1	0.00189081	40	24.7011	-2.12455e-05
2	0	0	1	1	51.7603	0.0767361	0.076279	-0.392674	1	0.00143768	40	25.8506	-2.99528e-05
2	0	0	1	1	52.9097	0.0997251	0.099378	-0.38599	1	0.00099085	40	27	-3.83589e-05
2	0	0	1	1	54.0592	0.122714	0.122446	-0.379619	1	0.000550979	40	28.1495	-4.64827e-05
2	0	0	1	1	55.2086	0.145703	0.145522	-0.372345	1	0.000119428	40	29.2989	-5.41845e-05
2	0	0	1	1	56.3581	0.168692	0.168432	-0.361773	1	-0.000301066	40	30.4484	-6.09342e-05
2	0	0	1	1	57.5075	0.191681	0.191456	-0.349607	1	-0.00070944	40	31.5978	-6.69342e-05
2	0	0	1	1	58.657	0.21467	0.214463	-0.337251	1	-0.00110352	40	32.7473	-7.23277e-05
2	0	0	1	1	59.8064	0.237659	0.237393	-0.322622	1	-0.00148154	40	33.8967	-7.65881e-05
2	0	0	1	1	60.9559	0.260649	0.26027	-0.306348	1	-0.00184219	40	35.0462	-7.9733e-05
2	0	0	1	1	62.1054	0.283638	0.283233	-0.291802	1	-0.00218446	40	36.1957	-8.26478e-05
2	0	0	1	1	63.2548	0.306627	0.306304	-0.27971	1	-0.00251142	40	37.3451	-8.56762e-05
2	0	0	1	1	64.4043	0.329616	0.329201	-0.264462	1	-0.00282352	40	38.4946	-8.7061e-05
2	0	0	1	1	65.5537	0.352605	0.352254	-0.239869	1	-0.00311325	40	39.644	-8.44949e-05
2	0	0	1	1	66.7032	0.375594	0.375149	-0.198553	1	-0.00336543	40	40.7935	-7.4487e-05
2	0	0	1	1	67.8526	0.398583	0.398022	-0.140525	1	-0.00356043	40	41.9429	-5.59322e-05
2	0	0	1	1	69.0021	0.421572	0.421179	-0.0668325	1	-0.00368006	40	43.0924	-2.81485e-05
2	1	0	1	1	70.1565	0.444661	0.444726	0.0232576	2	-0.00370601	41	0.2511	1.03433e-05
2	1	0	1	1	71.336	0.46825	0.467867	0.122814	2	-0.00361985	40	1.4306	5.74605e-05
2	1	0	1	1	72.4854	0.491239	0.490742	0.217721	2	-0.0034224	40	2.58	0.000106845
2	1	0	1	1	73.6349	0.514228	0.513917	0.300457	2	-0.00312232	40	3.7295	0.00015441
2	1	0	1	1	74.7843	0.537217	0.537021	0.367753	2	-0.00273609	40	4.8789	0.000197491
2	1	0	1	1	75.9338	0.560206	0.559808	0.421527	2	-0.0022804	40	6.0284	0.000235974
2	1	0	1	1	77.0832	0.583195	0.582819	0.464457	2	-0.00176966	40	7.1778	0.000270695
2	1	0	1	1	78.2327	0.606184	0.605706	0.500596	2	-0.00121393	40	8.3273	0.000303214
[...]
2	1	0	1	1	90.8349	0.541815	0.541229	0.435505	2	0.00583212	40	20.9295	0.000235708
2	1	0	1	1	91.9843	0.518826	0.51834	0.364875	2	0.00629343	40	22.0789	0.00018913
2	1	0	1	1	93.1338	0.495837	0.49561	0.272755	2	0.00666116	40	23.2284	0.00013518
2	1	0	1	1	94.2832	0.472848	0.472497	0.162769	2	0.00691205	40	24.3778	7.69077e-05
2	1	0	1	1	95.4327	0.449859	0.449321	0.046708	2	0.00703131	40	25.5273	2.09869e-05
2	0	0	1	1	96.6121	0.42627	0.425929	-0.0621068	2	0.00701984	41	0.6747	-2.64531e-05
2	0	0	1	1	97.7916	0.402681	0.402337	-0.146513	2	0.00689362	40	1.8542	-5.89477e-05
2	0	0	1	1	98.941	0.379692	0.37934	-0.20812	2	0.00668634	40	3.0036	-7.8948e-05
2	0	0	1	1	100.09	0.356703	0.356439	-0.252988	2	0.0064183	40	4.1531	-9.01747e-05
2	0	0	1	1	101.24	0.333714	0.333311	-0.283426	2	0.00610759	40	5.3025	-9.4469e-05
2	0	0	1	1	102.389	0.310725	0.310437	-0.305598	2	0.00576673	40	6.452	-9.48689e-05
2	0	0	1	1	103.539	0.287736	0.287377	-0.322391	2	0.00540386	40	7.6014	-9.26478e-05
2	0	0	1	1	104.688	0.264747	0.264442	-0.33588	2	0.00502379	40	8.7509	-8.88208e-05
2	0	0	1	1	105.838	0.241756	0.241501	-0.348662	2	0.00462895	40	9.9004	-8.42022e-05
2	0	0	1	1	106.987	0.218769	0.218545	-0.358854	2	0.00422167	40	11.0498	-7.8426e-05
2	0	0	1	1	108.137	0.195779	0.195567	-0.367207	2	0.00380203	40	12.1993	-7.18135e-05
2	0	0	1	1	109.286	0.17279	0.172506	-0.376177	2	0.0033725	40	13.3487	-6.48929e-05
2	0	0	1	1	110.436	0.149801	0.149585	-0.382669	2	0.00293466	40	14.4982	-5.72414e-05
2	0	0	1	1	111.585	0.126812	0.126236	-0.387508	2	0.00249084	40	15.6476	-4.89175e-05
2	0	0	1	1	112.734	0.103823	0.103677	-0.391794	2	0.00204164	40	16.7971	-4.06201e-05
2	0	0	1	1	113.884	0.0808341	0.0807818	-0.394533	2	0.00158822	40	17.9465	-3.18711e-05
2	0	0	1	1	115.033	0.057845	0.0575335	-0.397474	2	0.00113183	40	19.096	-2.28681e-05
2	0	0	1	1	116.183	0.034856	0.0346069	-0.399498	2	0.000672628	40	20.2454	-1.38254e-05
2	0	0	1	1	117.332	0.0118669	0.0115152	-0.401849	2	0.000211039	40	21.3949	-4.62736e-06
2	0	0	1	0	118.44	0.0102667	0.00987312	-0.400294	2	-0.000233949	40	22.5022	-3.95215e-06
2	0	0	1	0	119.589	0.0332567	0.0329586	-0.399256	2	-0.000692033	40	23.6517	-1.31589e-05
2	0	0	1	0	120.739	0.0562458	0.0559264	-0.394282	2	-0.0011461	40	24.8012	-2.20508e-05
2	0	0	1	0	121.888	0.0792349	0.078867	-0.389446	2	-0.00159575	40	25.9506	-3.07145e-05
2	0	0	1	0	123.037	0.102224	0.101893	-0.382924	2	-0.00203838	40	27.1001	-3.90173e-05
2	0	0	1	0	124.187	0.125213	0.124878	-0.375996	2	-0.00247406	40	28.2495	-4.69534e-05
2	0	0	1	0	125.336	0.148202	0.1481	-0.367758	2	-0.00290153	40	29.399	-5.44648e-05
2	0	0	1	0	126.486	0.171191	0.170849	-0.3577	2	-0.00331762	40	30.5484	-6.11127e-05
2	0	0	1	0	127.635	0.19418	0.193803	-0.345946	2	-0.00372113	40	31.6979	-6.70453e-05
2	0	0	1	0	128.785	0.217169	0.216909	-0.333608	2	-0.00411071	40	32.8473	-7.23624e-05
2	0	0	1	0	129.934	0.240158	0.239617	-0.318136	2	-0.00448414	40	33.9968	-7.62307e-05
2	0	0	1	0	131.084	0.263147	0.262722	-0.302449	2	-0.00484034	40	35.1462	-7.946e-05
2	0	0	1	0	132.233	0.286137	0.285952	-0.288247	2	-0.00517847	40	36.2957	-8.24249e-05
2	0	0	1	0	133.383	0.309126	0.308791	-0.277656	2	-0.0055023	40	37.4452	-8.57376e-05
2	0	0	1	0	134.532	0.332115	0.331734	-0.263591	2	-0.00581207	40	38.5946	-8.7442e-05
2	0	0	1	0	135.681	0.355104	0.354933	-0.238034	2	-0.00609946	40	39.7441	-8.44861e-05
2	0	0	1	0	136.831	0.378093	0.377687	-0.195433	2	-0.00634901	40	40.8935	-7.38126e-05
2	0	0	1	0	137.98	0.401082	0.400647	-0.135763	2	-0.00653991	40	42.043	-5.4393e-05
2	0	0	1	0	139.13	0.424071	0.423704	-0.0582905	2	-0.00665206	40	43.1924	-2.46979e-05
2	1	0	1	0	139.917	0.439839	0.439739	0.0050312	2	-0.00667323	41	0.0323	2.21241e-06

File: 240313-CVEIS_PostActivation-Fe2Fe3_5mM-HCl1M-2000RPM-Ag_AgCl_BLF8-Au_RDE_02_PEIS_C15.mpt
EC-Lab ASCII FILE
Nb header lines : 66

Potentio Electrochemical Impedance Spectroscopy

Run on channel : 15 (SN 19485)
User :
Electrode connection : standard
Potential control : Ewe
Ewe ctrl range : min = -1.00 V, max = 1.00 V
Ewe,I filtering : <None>
Safety Limits :
	Do not start on E overload
Channel : Floating
Acquisition started on : 03/13/2024 18:03:19.717
Loaded Setting File :  NONE
Saved on :
	File : 240313-CVEIS_PostActivation-Fe2Fe3_5mM-HCl1M-2000RPM-Ag_AgCl_BLF8-Au_RDE_02_PEIS_C15.mpr
	Directory : C:\Data\mathias\GoldElectrode\
	Host : 192.168.0.1
Device : VMP-300 (SN 0826)
Address : USB
EC-Lab for windows v11.52 (software)
Internet server v11.52 (firmware)
Command interpretor v11.52 (firmware)
Electrode material :
Initial state :
Electrolyte :
Comments :
Cable : special
Electrode surface area : 0.001 cm²
Characteristic mass : 0.001 g
Equivalent Weight : 0.000 g/eq.
Density : 0.000 g/cm3
Volume (V) : 0.001 cm³
Record EIS quality indicators
Cycle Definition : Charge/Discharge alternance
Mode                Single sine
E (V)               0.0000
vs.                 Eoc
tE (h:m:s)          0:01:0.0000
record              0
dI                  0.000
unit dI             mA
dt (s)              0.000
fi                  400.000
unit fi             kHz
ff                  100.000
unit ff             mHz
Nd                  10
Points              per decade
spacing             Logarithmic
Va (mV)             5.0
pw                  0.10
Na                  3
corr                0
E range min (V)     -1.000
E range max (V)     1.000
I Range             Auto
Bandwidth           8
nc cycles           0
goto Ns'            0
nr cycles           0
inc. cycle          1

freq/Hz	Re(Z)/Ohm	-Im(Z)/Ohm	|Z|/Ohm	Phase(Z)/deg	time/s	<Ewe>/V	<I>/mA	Cs/µF	Cp/µF	cycle number	I Range	|Ewe|/V	|I|/A	Ns	(Q-Qo)/mA.h	THD Ewe/%	NSD Ewe/%	NSR Ewe/%	|Ewe h2|/V	|Ewe h3|/V	|Ewe h4|/V	|Ewe h5|/V	|Ewe h6|/V	|Ewe h7|/V	THD I/%	NSD I/%	NSR I/%	|I h2|/A	|I h3|/A	|I h4|/A	|I h5|/A	|I h6|/A	|I h7|/A	Re(Y)/Ohm-1	Im(Y)/Ohm-1	|Y|/Ohm-1	Phase(Y)/deg	Re(C)/nF	Im(C)/nF	|C|/nF	Phase(C)/deg	Re(M)	Im(M)	|M|	Phase(M)/deg	Re(Permittivity)	Im(Permittivity)	|Permittivity|	Phase(Permittivity)/deg	Re(Resistivity)/Ohm.cm	Im(Resistivity)/Ohm.cm	|Resistivity|/Ohm.cm	Phase(Resistivity)/deg	Re(Conductivity)/mS/cm	Im(Conductivity)/mS/cm	|Conductivity|/mS/cm	Phase(Conductivity)/deg	Tan(Delta)	Loss Angle(Delta)/deg	dq/mA.h
399996	3.24034	1.39484	3.5278	-23.2899	203.253	0.439658	-0.00578722	0.28526	0.0445943	1	38	0.00456647	0.00129442	0	3.9924e-05	-1	-1	-1	0	0	0	0	0	0	-1	-1	-1	0	0	0	0	0	0	0.260365	0.112077	0.283463	23.2899	44.5943	103.597	112.787	-66.7101	0.0000000E+000	0.0000000E+000	0.0000000E+000	66.7101	0.0000000E+000	0.0000000E+000	0.0000000E+000	-66.7101	0.0000000E+000	0.0000000E+000	0.0000000E+000	-23.2899	0.0000000E+000	0.0000000E+000	0.0000000E+000	23.2899	2.3231	66.7101	3.9924e-05
126447	3.1878	0.364434	3.20856	-6.52182	209.427	0.439672	-0.00316698	3.45375	0.0445561	1	37	0.00521506	0.00162536	0	3.58268e-05	-1	-1	-1	0	0	0	0	0	0	-1	-1	-1	0	0	0	0	0	0	0.309649	0.0353995	0.311666	6.52182	44.5561	389.744	392.283	-83.4782	0.0000000E+000	0.0000000E+000	0.0000000E+000	83.4782	0.0000000E+000	0.0000000E+000	0.0000000E+000	-83.4782	0.0000000E+000	0.0000000E+000	0.0000000E+000	-6.52182	0.0000000E+000	0.0000000E+000	0.0000000E+000	6.52182	8.74727	83.4782	-1.82357e-06
39971.8	3.37092	0.650944	3.4332	-10.9296	215.168	0.439678	0.00392391	6.11678	0.219893	1	37	0.00519474	0.00151309	0	3.78178e-05	1.15663	0.718595	20.4821	2.33598e-05	2.22669e-05	2.19829e-05	1.41608e-05	2.93221e-05	2.17408e-05	0.555594	0.389613	11.6861	4.09486e-06	2.41022e-06	1.73915e-06	3.6593e-06	4.30276e-06	2.01402e-06	0.28599	0.0552262	0.291274	10.9296	219.893	1138.72	1159.76	-79.0704	0.0000000E+000	0.0000000E+000	0.0000000E+000	79.0704	0.0000000E+000	0.0000000E+000	0.0000000E+000	-79.0704	0.0000000E+000	0.0000000E+000	0.0000000E+000	-10.9296	0.0000000E+000	0.0000000E+000	0.0000000E+000	10.9296	5.17852	79.0704	-2.41667e-08
12637.3	3.64658	1.36071	3.89218	-20.4629	220.908	0.439655	0.00169057	9.2555	1.13121	1	37	0.00511125	0.00131321	0	4.51624e-05	1.1714	0.506033	21.3701	2.57296e-05	1.91503e-05	1.27014e-05	3.44725e-05	2.09004e-05	2.29847e-05	0.739139	0.311764	13.3905	3.72482e-06	3.86574e-06	2.32303e-06	5.05143e-06	4.22975e-06	2.63591e-06	0.240713	0.0898212	0.256925	20.4629	1131.21	3031.55	3235.73	-69.5371	0.0000000E+000	0.0000000E+000	0.0000000E+000	69.5371	0.0000000E+000	0.0000000E+000	0.0000000E+000	-69.5371	0.0000000E+000	0.0000000E+000	0.0000000E+000	-20.4629	0.0000000E+000	0.0000000E+000	0.0000000E+000	20.4629	2.67991	69.5371	-1.74177e-06
3993.72	4.16475	3.53623	5.46352	-40.3341	227.256	0.439553	0.00215211	11.2694	4.72104	1	38	0.00529596	0.000969331	0	4.7848e-05	1.07759	0.711202	19.0627	1.73298e-05	1.23658e-05	2.57615e-05	3.37462e-05	2.59816e-05	9.48582e-06	0.210337	0.0860406	3.03782	1.35168e-06	3.26862e-07	4.5828e-07	1.00749e-06	4.82978e-07	6.18263e-07	0.139522	0.118466	0.183032	40.3341	4721.04	5560.15	7294.07	-49.6659	0.0000000E+000	0.0000000E+000	0.0000000E+000	49.6659	0.0000000E+000	0.0000000E+000	0.0000000E+000	-49.6659	0.0000000E+000	0.0000000E+000	0.0000000E+000	-40.3341	0.0000000E+000	0.0000000E+000	0.0000000E+000	40.3341	1.17774	49.6659	9.32208e-07
1262.98	5.70183	9.60685	11.1715	-59.3101	232.787	0.439548	0.00232898	13.1173	9.70024	1	38	0.0048137	0.000430891	0	5.17167e-05	1.17697	0.573954	21.4135	3.00216e-05	1.96265e-05	8.08193e-06	2.06832e-05	2.03638e-05	2.00879e-05	0.63951	0.224077	6.81518	2.0052e-06	1.13226e-06	6.40764e-07	9.29711e-07	7.75437e-07	4.35785e-07	0.0456869	0.0769764	0.0895135	59.3101	9700.23	5757.26	11280.1	-30.6899	0.0000000E+000	0.0000000E+000	0.0000000E+000	30.6899	0.0000000E+000	0.0000000E+000	0.0000000E+000	-30.6899	0.0000000E+000	0.0000000E+000	0.0000000E+000	-59.3101	0.0000000E+000	0.0000000E+000	0.0000000E+000	59.3101	0.593518	30.6899	4.24377e-07
399.106	12.4296	25.3502	28.2335	-63.8806	238.325	0.439548	0.00477928	15.7308	12.6819	1	38	0.00462887	0.000163949	0	5.74928e-05	1.30194	0.853381	23.4777	2.55958e-05	1.58888e-05	1.98801e-05	2.82381e-05	2.58887e-05	2.09904e-05	0.996338	0.436465	17.8932	6.57758e-07	6.61206e-07	6.77854e-07	4.27943e-07	5.49649e-07	7.19712e-07	0.0155929	0.0318019	0.0354189	63.8806	12681.9	6218.13	14124.3	-26.1194	0.0000000E+000	0.0000000E+000	0.0000000E+000	26.1194	0.0000000E+000	0.0000000E+000	0.0000000E+000	-26.1194	0.0000000E+000	0.0000000E+000	0.0000000E+000	-63.8806	0.0000000E+000	0.0000000E+000	0.0000000E+000	63.8806	0.490315	26.1194	1.4879e-06
126.171	39.6784	54.2149	67.1835	-53.8006	244.1	0.439562	0.00345395	23.2671	15.1514	1	39	0.00462625	6.88599e-05	0	6.31119e-05	1.26987	0.519079	23.3546	2.76821e-05	1.4397e-05	1.2798e-05	1.66677e-05	2.7855e-05	3.20099e-05	1.06778	0.637422	18.5885	4.47808e-07	1.28544e-07	2.26703e-07	2.19908e-07	2.87762e-07	3.70467e-07	0.0087908	0.0120114	0.0148846	53.8006	15151.4	11088.9	18775.8	-36.1994	0.0000000E+000	0.0000000E+000	0.0000000E+000	36.1994	0.0000000E+000	0.0000000E+000	0.0000000E+000	-36.1994	0.0000000E+000	0.0000000E+000	0.0000000E+000	-53.8006	0.0000000E+000	0.0000000E+000	0.0000000E+000	53.8006	0.731872	36.1994	1.15135e-06
[...]
3.98597	199.448	59.8808	208.243	-16.7115	262.327	0.439604	0.00375109	666.804	55.1358	1	40	0.0045899	2.20411e-05	0	8.1374e-05	1.35019	0.901183	21.4314	1.52585e-05	1.7462e-05	2.35239e-05	2.475e-05	2.43231e-05	3.24561e-05	0.501419	0.341199	6.06044	6.70627e-08	3.55532e-08	1.83974e-08	4.92708e-08	3.16341e-08	4.04825e-08	0.00459927	0.00138085	0.00480209	16.7115	55135.8	183643	191741	-73.2885	0.0000000E+000	0.0000000E+000	0.0000000E+000	73.2885	0.0000000E+000	0.0000000E+000	0.0000000E+000	-73.2885	0.0000000E+000	0.0000000E+000	0.0000000E+000	-16.7115	0.0000000E+000	0.0000000E+000	0.0000000E+000	16.7115	3.33075	73.2885	1.82893e-06
1.25968	252.782	47.5145	257.209	-10.6455	280.271	0.439561	0.00408267	2659.1	90.7433	1	40	0.00459449	1.78629e-05	0	0.000101039	0.548303	0.270428	11.3241	8.23326e-06	1.12269e-05	8.5572e-06	9.51133e-06	8.28349e-06	1.09086e-05	0.474663	0.200745	4.3133	7.85723e-08	1.81367e-08	1.18864e-08	9.84117e-09	1.5301e-08	1.11776e-08	0.00382097	0.000718214	0.00388789	10.6455	90743.3	482764	491218	-79.3545	0.0000000E+000	0.0000000E+000	0.0000000E+000	79.3545	0.0000000E+000	0.0000000E+000	0.0000000E+000	-79.3545	0.0000000E+000	0.0000000E+000	0.0000000E+000	-10.6455	0.0000000E+000	0.0000000E+000	0.0000000E+000	10.6455	5.32011	79.3545	6.47922e-06
0.398211	283.792	19.5746	284.466	-3.94574	334.914	0.439569	0.00468742	20418	96.6803	1	41	0.00459218	1.61431e-05	0	0.000168797	0.390011	0.273421	8.03713	9.30279e-06	6.58497e-06	4.28696e-06	7.42575e-06	6.80551e-06	6.56701e-06	0.435773	0.236433	0.769325	6.5831e-08	1.29861e-08	8.74708e-09	1.51989e-08	4.40145e-09	6.48392e-09	0.00350702	0.000241897	0.00351535	3.94574	96680.4	1.40167e+06	1.405e+06	-86.0543	0.0000000E+000	0.0000000E+000	0.0000000E+000	86.0543	0.0000000E+000	0.0000000E+000	0.0000000E+000	-86.0543	0.0000000E+000	0.0000000E+000	0.0000000E+000	-3.94574	0.0000000E+000	0.0000000E+000	0.0000000E+000	3.94574	14.498	86.0543	2.23641e-05
0.125939	309.039	7.20485	309.123	-1.33554	497.719	0.439566	0.00653664	175403	95.2847	1	41	0.00459596	1.48677e-05	0	0.000425292	0.307727	0.210697	4.51835	7.21407e-06	8.07877e-06	3.30655e-06	3.36598e-06	2.73065e-06	5.81344e-06	0.405774	0.504412	0.608412	5.52701e-08	1.32946e-08	6.70742e-09	1.50769e-08	6.30665e-09	5.83616e-09	0.00323408	7.53984e-05	0.00323496	1.33554	95284.5	4.08706e+06	4.08817e+06	-88.6645	0.0000000E+000	0.0000000E+000	0.0000000E+000	88.6645	0.0000000E+000	0.0000000E+000	0.0000000E+000	-88.6645	0.0000000E+000	0.0000000E+000	0.0000000E+000	-1.33554	0.0000000E+000	0.0000000E+000	0.0000000E+000	1.33554	42.8932	88.6645	9.00163e-05
0.0999518	315.989	5.96753	316.045	-1.08192	559.122	0.439546	0.0071677	266830	95.1319	1	41	0.00459229	1.45305e-05	0	0.000548555	0.279408	0.222806	4.68624	7.11849e-06	2.95056e-06	5.9304e-06	3.89241e-06	4.38499e-06	4.20303e-06	0.498358	0.558129	0.544828	6.91676e-08	1.43667e-08	6.32023e-09	1.21292e-08	5.39972e-09	3.36262e-09	0.00316354	5.97443e-05	0.00316411	1.08192	95131.9	5.03736e+06	5.03826e+06	-88.9181	0.0000000E+000	0.0000000E+000	0.0000000E+000	88.9181	0.0000000E+000	0.0000000E+000	0.0000000E+000	-88.9181	0.0000000E+000	0.0000000E+000	0.0000000E+000	-1.08192	0.0000000E+000	0.0000000E+000	0.0000000E+000	1.08192	52.9513	88.9181	0.000123262