Folder: Thesis/Python/Data/GoldElectrode/240308

File: 240308-CV_Activation-0p5H2SO4-Ag_AgCl_BLF8-Au_RDE-Initial2-C15_C15.mpt
EC-Lab ASCII FILE
Nb header lines : 59

Cyclic Voltammetry

Run on channel : 15 (SN 19485)
User :
Electrode connection : standard
Potential control : Ewe
Ewe ctrl range : min = -2.50 V, max = 2.50 V
Ewe,I filtering : <None>
Safety Limits :
	Do not start on E overload
Channel : Floating
Acquisition started on : 03/08/2024 16:11:42.125
Loaded Setting File :  NONE
Saved on :
	File : 240308-CV_Activation-0p5H2SO4-Ag_AgCl_BLF8-Au_RDE-Initial2-C15_C15.mpr
	Directory : C:\Data\mathias\GoldElectrode\
	Host : 192.168.0.1
Device : VMP-300 (SN 0826)
Address : USB
EC-Lab for windows v11.52 (software)
Internet server v11.52 (firmware)
Command interpretor v11.52 (firmware)
Electrode material :
Initial state :
Electrolyte :
Comments :
Cable : special
Electrode surface area : 0.001 cm²
Characteristic mass : 0.001 g
Equivalent Weight : 0.000 g/eq.
Density : 0.000 g/cm3
Volume (V) : 0.001 cm³
Cycle Definition : Charge/Discharge alternance
Ei (V)              0.000
vs.                 Eoc
dE/dt               20.000
dE/dt unit          mV/s
E1 (V)              1.500
vs.                 Ref
Step percent        50
N                   10
E range min (V)     -2.500
E range max (V)     2.500
I Range             Auto
I Range min         Unset
I Range max         Unset
I Range init        Unset
Bandwidth           8
E2 (V)              -0.300
vs.                 Ref
nc cycles           1
Reverse Scan        1
Ef (V)              0.000
vs.                 Eoc

mode	ox/red	error	control changes	counter inc.	time/s	control/V	Ewe/V	<I>/mA	cycle number	(Q-Qo)/C	I Range	step time/s	P/W
2	1	0	0	0	0.000000000000000E+000	0.405302	0.403665	8.44521e-05	1	0.0000000E+000	43	0.000000000000000E+000	3.40903e-08
2	1	0	1	0	3.0561	0.466421	0.466271	0.00106929	1	2.39353e-06	42	3.0286	4.9858e-07
2	1	0	1	0	6.1045	0.52739	0.527489	0.00127746	1	6.08383e-06	42	6.077	6.73846e-07
2	1	0	1	0	9.1529	0.58836	0.588271	0.00127551	1	1.00375e-05	42	9.1254	7.50344e-07
2	1	0	1	0	12.2015	0.649329	0.649142	0.00119879	1	1.38211e-05	42	12.174	7.78188e-07
2	1	0	1	0	15.2499	0.710299	0.709858	0.00121962	1	1.74942e-05	42	15.2224	8.65757e-07
2	1	0	1	0	18.2984	0.771269	0.771055	0.00116183	1	2.12239e-05	42	18.2709	8.95831e-07
2	1	0	1	0	21.3469	0.832237	0.832231	0.00101157	1	2.45265e-05	42	21.3194	8.41859e-07
2	1	0	1	0	24.3953	0.893207	0.892502	0.000949452	1	2.75251e-05	42	24.3678	8.47389e-07
2	1	0	1	0	27.4438	0.954175	0.953915	0.00122728	1	3.06606e-05	42	27.4163	1.17072e-06
2	1	0	1	0	30.4923	1.01515	1.01469	0.00490245	1	3.81933e-05	42	30.4648	4.97446e-06
2	1	0	1	0	33.5707	1.07671	1.07644	0.0166435	1	7.09832e-05	41	33.5432	1.79157e-05
2	1	0	1	0	36.6192	1.13768	1.13724	0.0215419	1	0.000132235	41	36.5917	2.44983e-05
2	1	0	1	0	39.6677	1.19865	1.19868	0.0196315	1	0.000195897	41	39.6402	2.3532e-05
2	1	0	1	0	42.7161	1.25962	1.25927	0.0160113	1	0.000250716	41	42.6886	2.01625e-05
2	1	0	1	0	45.7647	1.32059	1.32012	0.0136666	1	0.000294854	41	45.7372	1.80416e-05
2	1	0	1	0	48.8131	1.38156	1.38103	0.0128842	1	0.000335815	41	48.7856	1.77936e-05
2	1	0	1	0	51.8615	1.44253	1.44205	0.012532	1	0.000373864	41	51.834	1.80717e-05
2	1	0	1	0	54.8606	1.4974	1.49691	0.0134168	1	0.000414173	41	54.8331	2.00837e-05
2	1	0	1	0	57.9391	1.43583	1.43524	0.00334678	1	0.000435519	42	57.9116	4.80342e-06
2	1	0	1	0	60.9875	1.37487	1.37446	0.00113411	1	0.000441676	42	60.96	1.55879e-06
2	1	0	1	0	64.1409	1.3118	1.31132	0.000256234	1	0.000443847	43	64.1134	3.36004e-07
2	1	0	1	0	67.2344	1.24993	1.24935	6.12534e-05	1	0.000444474	43	67.2069	7.65269e-08
2	0	0	1	0	70.2829	1.18896	1.18855	-0.000157682	1	0.00044433	43	2.149	-1.87413e-07
2	0	0	1	0	73.3313	1.12799	1.12753	-0.000489604	1	0.000443404	43	5.1974	-5.52043e-07
2	0	0	1	0	76.4098	1.06642	1.0661	-0.00138395	1	0.000440776	42	8.2759	-1.47543e-06
2	0	0	1	0	79.4583	1.00545	1.00518	-0.00522993	1	0.000432293	42	11.3244	-5.25702e-06
2	0	0	1	0	82.5367	0.943881	0.943707	-0.0196897	1	0.00039074	41	14.4028	-1.85814e-05
2	0	0	1	0	85.5852	0.882912	0.882845	-0.0054765	1	0.000358999	41	17.4513	-4.8349e-06
2	0	0	1	0	88.6337	0.821943	0.821859	-0.0090237	1	0.000338587	41	20.4998	-7.41621e-06
2	0	0	1	0	91.6821	0.760973	0.760626	-0.00772123	1	0.000308681	41	23.5482	-5.87297e-06
2	0	0	1	0	94.7307	0.700004	0.699901	-0.00452196	1	0.000289507	41	26.5968	-3.16492e-06
2	0	0	1	0	97.8091	0.638435	0.638169	-0.00370329	1	0.00027638	42	29.6752	-2.36333e-06
2	0	0	1	0	100.857	0.577465	0.57762	-0.00299383	1	0.00026627	42	32.7236	-1.7293e-06
2	0	0	1	0	103.906	0.516496	0.516193	-0.00261647	1	0.000257767	42	35.7722	-1.3506e-06
2	0	0	1	0	106.954	0.455526	0.455107	-0.00256115	1	0.00024994	42	38.8206	-1.1656e-06
2	0	0	1	0	110.003	0.394557	0.39425	-0.00241313	1	0.000242225	42	41.869	-9.51374e-07
2	0	0	1	0	113.051	0.333588	0.333596	-0.00197655	1	0.000235542	42	44.9176	-6.59368e-07
2	0	0	1	0	116.1	0.272618	0.27237	-0.00170695	1	0.000229949	42	47.966	-4.64924e-07
2	0	0	1	0	119.148	0.211649	0.211066	-0.00146553	1	0.000225118	42	51.0144	-3.09323e-07
2	0	0	1	0	122.197	0.150679	0.150375	-0.00139591	1	0.000220811	42	54.063	-2.0991e-07
2	0	0	1	0	125.245	0.08971	0.0892859	-0.00183301	1	0.000216103	42	57.1114	-1.63662e-07
2	0	0	1	0	128.294	0.0287388	0.0284123	-0.00401152	1	0.000207885	42	60.1599	-1.13976e-07
2	0	0	1	0	131.342	-0.0322289	-0.0326992	-0.0096713	1	0.000187847	42	63.2084	3.16244e-07
2	0	0	1	0	134.421	-0.093798	-0.0942166	-0.0138931	1	0.00014957	41	66.2868	1.30896e-06
2	0	0	1	0	137.469	-0.154769	-0.155246	-0.013154	1	0.000107065	41	69.3353	2.0421e-06
2	0	0	1	0	140.518	-0.215737	-0.215858	-0.0121911	1	6.82456e-05	41	72.3838	2.63154e-06
2	0	0	1	0	143.566	-0.276706	-0.277318	-0.0124729	1	3.07266e-05	41	75.4322	3.45897e-06
2	0	0	1	1	146.555	-0.263513	-0.263422	-0.010014	1	-4.42486e-06	41	78.4212	2.63792e-06
2	0	0	1	1	149.604	-0.202544	-0.202552	-0.00761458	1	-3.07573e-05	41	81.4697	1.54235e-06
2	0	0	1	1	152.652	-0.141574	-0.141772	-0.00579622	1	-5.08307e-05	41	84.5182	8.2174e-07
2	0	0	1	1	155.73	-0.0800049	-0.0803253	-0.00367646	1	-6.52781e-05	42	87.5966	2.95313e-07
2	0	0	1	1	158.779	-0.0190364	-0.0193047	-0.00163924	1	-7.32429e-05	42	90.6451	3.16451e-08
2	0	0	1	1	161.842	0.0422338	0.0418699	-0.000500659	1	-7.61585e-05	42	93.7086	-2.09626e-08
2	1	0	1	1	164.906	0.103503	0.103074	6.5235e-05	1	-7.65726e-05	43	0.6496	6.72401e-09
2	1	0	1	1	167.954	0.164472	0.164297	0.000247676	1	-7.60568e-05	43	3.6981	4.06926e-08
2	1	0	1	1	171.003	0.225442	0.225252	0.000447256	1	-7.50714e-05	43	6.7466	1.00745e-07
2	1	0	1	1	174.051	0.286411	0.286083	0.000826099	1	-7.2951e-05	43	9.795	2.36333e-07
2	1	0	1	1	177.1	0.347381	0.347142	0.000626313	1	-7.08556e-05	43	12.8436	2.1742e-07
2	1	0	1	1	180.073	0.406851	0.406326	0.000896278	2	-6.86936e-05	43	15.817	3.64181e-07
2	1	0	1	1	183.152	0.46842	0.468178	0.00135218	2	-6.51726e-05	42	18.8954	6.33064e-07
2	1	0	1	1	186.2	0.529389	0.529162	0.00134925	2	-6.09628e-05	42	21.944	7.13972e-07
2	1	0	1	1	189.249	0.590359	0.589913	0.00123459	2	-5.70258e-05	42	24.9924	7.283e-07
2	1	0	1	1	192.297	0.651328	0.651033	0.00112824	2	-5.34239e-05	42	28.0409	7.34523e-07
2	1	0	1	1	195.346	0.712298	0.712129	0.00110549	2	-5.00345e-05	42	31.0894	7.87252e-07
2	1	0	1	1	198.394	0.773267	0.773028	0.00101209	2	-4.67143e-05	42	34.1378	7.8237e-07
2	1	0	1	1	201.443	0.834236	0.834033	0.00086089	2	-4.38839e-05	42	37.1864	7.1801e-07
2	1	0	1	1	204.491	0.895206	0.894895	0.00081354	2	-4.13277e-05	42	40.2348	7.28033e-07
[...]
2	1	0	1	1	231.957	1.44453	1.44438	0.0118604	2	0.00033715	41	67.701	1.71309e-05
2	1	0	1	1	234.956	1.4954	1.49487	0.0120819	2	0.000375418	41	70.7	1.80608e-05
2	1	0	1	1	238.035	1.43384	1.43325	0.00312785	2	0.000394956	42	73.7786	4.48301e-06
2	1	0	1	1	241.083	1.37287	1.37254	0.00108657	2	0.000400773	42	76.827	1.49137e-06
2	1	0	1	1	244.207	1.3104	1.31017	0.000443165	2	0.000402869	42	79.9504	5.80622e-07
2	1	0	1	1	247.33	1.24793	1.24763	6.47243e-05	2	0.000403508	43	83.0738	8.07519e-08
2	0	0	1	1	250.379	1.18696	1.18621	-0.000158475	2	0.00040337	43	2.099	-1.87984e-07
2	0	0	1	1	253.427	1.12599	1.12585	-0.000495571	2	0.000402438	43	5.1474	-5.57936e-07
2	0	0	1	1	256.505	1.06442	1.06407	-0.00143103	2	0.000399743	42	8.2258	-1.52272e-06
2	0	0	1	1	259.554	1.00345	1.00305	-0.00563333	2	0.00039077	42	11.2744	-5.6505e-06
2	0	0	1	1	262.632	0.941882	0.941266	-0.0193878	2	0.000346327	41	14.3528	-1.82491e-05
2	0	0	1	1	265.681	0.880913	0.880469	-0.00543029	2	0.000316018	41	17.4012	-4.7812e-06
2	0	0	1	1	268.729	0.819944	0.8197	-0.0101169	2	0.00029346	41	20.4498	-8.29282e-06
2	0	0	1	1	271.778	0.758974	0.758327	-0.00759572	2	0.000262099	41	23.4982	-5.76004e-06
2	0	0	1	1	274.826	0.698005	0.6976	-0.00457691	2	0.000242877	41	26.5466	-3.19285e-06
2	0	0	1	1	277.905	0.636436	0.635941	-0.00378166	2	0.000229514	42	29.6252	-2.40492e-06
2	0	0	1	1	280.953	0.575466	0.574933	-0.00304702	2	0.000219191	42	32.6736	-1.75183e-06
2	0	0	1	1	284.002	0.514497	0.513948	-0.00266736	2	0.00021054	42	35.722	-1.37089e-06
2	0	0	1	1	287.05	0.453527	0.453308	-0.00260032	2	0.000202586	42	38.7706	-1.17874e-06
2	0	0	1	1	290.099	0.392558	0.391957	-0.00241812	2	0.000194785	42	41.819	-9.47802e-07
2	0	0	1	1	293.147	0.331589	0.331442	-0.00197242	2	0.000188102	42	44.8674	-6.53742e-07
2	0	0	1	1	296.196	0.270619	0.270168	-0.0016834	2	0.000182549	42	47.916	-4.54801e-07
2	0	0	1	1	299.244	0.20965	0.209358	-0.00145146	2	0.000177787	42	50.9644	-3.03874e-07
2	0	0	1	1	302.293	0.14868	0.148134	-0.00140636	2	0.000173502	42	54.0129	-2.08329e-07
2	0	0	1	1	305.341	0.087711	0.0873001	-0.00204631	2	0.000168525	42	57.0614	-1.78643e-07
2	0	0	1	1	308.389	0.0267415	0.0262401	-0.00489436	2	0.000158815	42	60.1098	-1.28429e-07
2	0	0	1	1	311.468	-0.034828	-0.0349499	-0.0107937	2	0.000134329	41	63.1883	3.77238e-07
2	0	0	1	1	314.516	-0.095797	-0.096052	-0.0139836	2	9.30624e-05	41	66.2368	1.34315e-06
2	0	0	1	1	317.565	-0.156766	-0.156888	-0.01269	2	5.11017e-05	41	69.2852	1.99091e-06
2	0	0	1	1	320.613	-0.217736	-0.218196	-0.0120525	2	1.30476e-05	41	72.3338	2.62981e-06
2	0	0	1	1	323.662	-0.278705	-0.279148	-0.0127743	2	-2.4849e-05	41	75.3822	3.56592e-06
2	0	0	1	0	326.651	-0.261514	-0.261881	-0.0101975	2	-6.07506e-05	41	78.3712	2.67053e-06
2	0	0	1	0	329.699	-0.200545	-0.200762	-0.00778975	2	-8.75185e-05	41	81.4196	1.56389e-06
2	0	0	1	0	332.748	-0.139575	-0.139634	-0.00606057	2	-0.000108102	41	84.4682	8.46262e-07
2	0	0	1	0	335.826	-0.0780059	-0.0780967	-0.0039684	2	-0.000123331	42	87.5466	3.09919e-07
2	0	0	1	0	338.875	-0.0170365	-0.0171552	-0.00185833	2	-0.000132133	42	90.595	3.188e-08
2	0	0	1	0	341.923	0.0439329	0.0434713	-0.000512303	2	-0.000135502	42	93.6436	-2.22705e-08
2	1	0	1	0	345.002	0.105502	0.105277	6.10542e-05	2	-0.000136035	43	0.4998	6.42758e-09
2	1	0	1	0	348.05	0.166471	0.166189	0.000250727	2	-0.000135508	43	3.5482	4.16682e-08
2	1	0	1	0	351.099	0.227441	0.227268	0.000443168	2	-0.000134518	43	6.5968	1.00718e-07
2	1	0	1	0	354.147	0.28841	0.288073	0.000859836	2	-0.000132365	43	9.6452	2.47695e-07
2	1	0	1	0	357.195	0.34938	0.34912	0.000622115	2	-0.00013025	43	12.6936	2.17192e-07
2	1	0	0	0	359.933	0.404202	0.403111	0.000877528	2	-0.00012828	43	15.4309	3.53741e-07

File: 240308-CV_Activation-0p5H2SO4-Ag_AgCl_BLF8-Au_RDE-Initial-C15_C15.mpt
EC-Lab ASCII FILE
Nb header lines : 59

Cyclic Voltammetry

Run on channel : 15 (SN 19485)
User :
Electrode connection : standard
Potential control : Ewe
Ewe ctrl range : min = -2.50 V, max = 2.50 V
Ewe,I filtering : <None>
Safety Limits :
	Do not start on E overload
Channel : Floating
Acquisition started on : 03/08/2024 16:03:14.034
Loaded Setting File :  C:\Data\mathias\RDE-RPM-variation\240219-CV-EIS-Fe2Fe3_5mM-HCl1M-0RPM-Ag_AgCl_BLF8-GC-RDE_01_CV_C15.mpr
Saved on :
	File : 240308-CV_Activation-0p5H2SO4-Ag_AgCl_BLF8-Au_RDE-Initial-C15_C15.mpr
	Directory : C:\Data\mathias\GoldElectrode\
	Host : 192.168.0.1
Device : VMP-300 (SN 0826)
Address : USB
EC-Lab for windows v11.52 (software)
Internet server v11.52 (firmware)
Command interpretor v11.52 (firmware)
Electrode material :
Initial state :
Electrolyte :
Comments :
Cable : special
Electrode surface area : 0.001 cm²
Characteristic mass : 0.001 g
Equivalent Weight : 0.000 g/eq.
Density : 0.000 g/cm3
Volume (V) : 0.001 cm³
Cycle Definition : Charge/Discharge alternance
Ei (V)              0.000
vs.                 Eoc
dE/dt               20.000
dE/dt unit          mV/s
E1 (V)              1.500
vs.                 Ref
Step percent        50
N                   10
E range min (V)     -2.500
E range max (V)     2.500
I Range             Auto
I Range min         Unset
I Range max         Unset
I Range init        Unset
Bandwidth           8
E2 (V)              -0.300
vs.                 Ref
nc cycles           0
Reverse Scan        1
Ef (V)              0.000
vs.                 Eoc

mode	ox/red	error	control changes	counter inc.	time/s	control/V	Ewe/V	<I>/mA	cycle number	(Q-Qo)/C	I Range	step time/s	P/W
2	1	1	0	0	0.000000000000000E+000	0.391809	0.391456	0.000185866	1	0.0000000E+000	43	0.000000000000000E+000	7.27584e-08
2	1	0	1	0	1.5268	0.422343	0.422116	0.000343967	1	4.40125e-07	43	1.4993	1.45194e-07
2	1	0	1	0	3.0761	0.453328	0.453043	0.000453559	1	1.0502e-06	43	3.0486	2.05482e-07
2	1	0	1	0	4.6253	0.484312	0.483806	0.00060276	1	1.86131e-06	43	4.5978	2.91619e-07
2	1	0	1	0	6.1745	0.515296	0.514866	0.000797571	1	2.94607e-06	43	6.147	4.10642e-07
2	1	0	1	0	7.7237	0.546281	0.545854	0.000984023	1	4.33244e-06	43	7.6962	5.37133e-07
2	1	0	1	0	9.3029	0.577865	0.57734	0.00110366	1	6.00226e-06	42	9.2754	6.37187e-07
2	1	0	1	0	10.8521	0.608849	0.608245	0.00118447	1	7.80488e-06	42	10.8246	7.20449e-07
2	1	0	1	0	12.4013	0.639834	0.639977	0.00121703	1	9.69305e-06	42	12.3738	7.7887e-07
2	1	0	1	0	13.9505	0.670818	0.670369	0.00125602	1	1.1631e-05	42	13.923	8.41995e-07
2	1	0	1	0	15.4998	0.701803	0.701836	0.00132485	1	1.36469e-05	42	15.4723	9.29825e-07
2	1	0	1	0	17.0491	0.732787	0.732681	0.00139787	1	1.57847e-05	42	17.0216	1.02419e-06
2	1	0	1	0	18.5983	0.763772	0.763341	0.00142638	1	1.80074e-05	42	18.5708	1.08881e-06
2	1	0	1	0	20.1475	0.794756	0.794385	0.00139071	1	2.02219e-05	42	20.12	1.10476e-06
2	1	0	1	0	21.6967	0.825741	0.825584	0.00134536	1	2.23718e-05	42	21.6692	1.11071e-06
2	1	0	1	0	23.2459	0.856725	0.856254	0.00129658	1	2.44483e-05	42	23.2184	1.1102e-06
2	1	0	1	0	24.7951	0.88771	0.88739	0.00125739	1	2.64577e-05	42	24.7676	1.1158e-06
2	1	0	1	0	26.3443	0.918694	0.918192	0.00125719	1	2.84341e-05	42	26.3168	1.15435e-06
2	1	0	1	0	27.8935	0.949678	0.949481	0.00139308	1	3.05025e-05	42	27.866	1.32271e-06
2	1	0	1	0	29.4428	0.980662	0.980356	0.00187741	1	3.30138e-05	42	29.4153	1.84053e-06
2	1	0	1	0	30.9921	1.01165	1.01157	0.00312154	1	3.67965e-05	42	30.9646	3.15765e-06
2	1	0	1	0	32.5413	1.04263	1.04232	0.00566167	1	4.34473e-05	42	32.5138	5.90127e-06
2	1	0	1	0	34.0905	1.07362	1.07346	0.00957921	1	5.51659e-05	42	34.063	1.02829e-05
2	1	0	1	0	35.6697	1.1052	1.10521	0.013788	1	7.37725e-05	41	35.6422	1.52386e-05
2	1	0	1	0	37.2189	1.13618	1.13592	0.0169957	1	9.79217e-05	41	37.1914	1.93058e-05
2	1	0	1	0	38.7681	1.16717	1.16676	0.0187583	1	0.000125888	41	38.7406	2.18864e-05
2	1	0	1	0	40.3173	1.19815	1.19761	0.0187573	1	0.000155306	41	40.2898	2.24638e-05
2	1	0	1	0	41.8665	1.22914	1.22899	0.0167054	1	0.000183108	41	41.839	2.05307e-05
2	1	0	1	0	43.4158	1.26012	1.25939	0.0137155	1	0.000206763	41	43.3883	1.72733e-05
2	1	0	1	0	44.9651	1.29111	1.29064	0.0114374	1	0.000225837	41	44.9376	1.47615e-05
2	1	0	1	0	46.5143	1.32209	1.32182	0.0123106	1	0.000243917	41	46.4868	1.62724e-05
2	1	0	1	0	48.0635	1.35308	1.35246	0.0147359	1	0.000264958	41	48.036	1.99296e-05
2	1	0	1	0	49.6127	1.38406	1.38402	0.0155213	1	0.000288526	41	49.5852	2.14817e-05
2	1	0	1	0	51.1619	1.41505	1.41438	0.0157819	1	0.000312817	41	51.1344	2.23217e-05
2	1	0	1	0	52.7111	1.44603	1.44568	0.0163588	1	0.000337671	41	52.6836	2.36496e-05
2	1	0	1	0	54.2603	1.47701	1.4768	0.0172156	1	0.000363707	41	54.2328	2.5424e-05
2	1	0	1	0	55.7351	1.49341	1.49324	0.0145619	1	0.000389056	41	55.7076	2.17444e-05
2	1	0	1	0	57.2843	1.46242	1.46231	0.00675099	1	0.000404515	41	57.2568	9.87201e-06
2	1	0	1	0	58.8635	1.43084	1.43017	0.0035744	1	0.000412329	42	58.836	5.11198e-06
2	1	0	1	0	60.4127	1.39985	1.39941	0.00206321	1	0.000416557	42	60.3852	2.88728e-06
2	1	0	1	0	61.9619	1.36887	1.36831	0.00124721	1	0.000419053	42	61.9344	1.70657e-06
2	1	0	1	0	63.5111	1.33788	1.33769	0.000769423	1	0.000420575	42	63.4836	1.02925e-06
2	1	0	1	0	65.0603	1.3069	1.3066	0.00047931	1	0.000421522	42	65.0328	6.26266e-07
2	1	0	1	0	66.7595	1.27292	1.27251	0.000255292	1	0.000422133	43	66.732	3.24862e-07
2	1	0	1	0	68.3087	1.24193	1.24176	0.000111254	1	0.000422412	43	68.2812	1.3815e-07
2	0	0	1	0	69.8579	1.21095	1.2104	-1.56962e-05	1	0.000422484	43	0.1498	-1.89987e-08
2	0	0	1	0	71.4072	1.17996	1.17936	-0.000146281	1	0.000422361	43	1.6991	-1.72517e-07
2	0	0	1	0	72.9564	1.14898	1.14823	-0.000310189	1	0.000422013	43	3.2483	-3.5617e-07
2	0	0	1	0	74.5057	1.11799	1.11762	-0.000546494	1	0.000421361	43	4.7976	-6.10773e-07
2	0	0	1	0	76.0549	1.08701	1.08665	-0.000934642	1	0.00042024	43	6.3468	-1.01563e-06
2	0	0	1	0	77.6341	1.05543	1.055	-0.00165711	1	0.000418248	42	7.926	-1.74825e-06
2	0	0	1	0	79.1833	1.02444	1.0242	-0.00315656	1	0.000414661	42	9.4752	-3.23296e-06
2	0	0	1	0	80.7325	0.993457	0.993165	-0.00686409	1	0.00040736	42	11.0244	-6.81717e-06
2	0	0	1	0	82.3117	0.961872	0.96159	-0.0161506	1	0.00038974	41	12.6036	-1.55302e-05
2	0	0	1	0	83.8609	0.930888	0.930291	-0.0160395	1	0.000361842	41	14.1528	-1.49214e-05
2	0	0	1	0	85.4101	0.899903	0.899614	-0.00837915	1	0.000343499	41	15.702	-7.53801e-06
2	0	0	1	0	86.9594	0.868917	0.86857	-0.00551927	1	0.000333017	41	17.2513	-4.79387e-06
2	0	0	1	0	88.5087	0.837935	0.837423	-0.00594782	1	0.000324337	41	18.8006	-4.98084e-06
2	0	0	1	0	90.0579	0.80695	0.806692	-0.00815758	1	0.000313167	41	20.3498	-6.58065e-06
2	0	0	1	0	91.6071	0.775966	0.77572	-0.00830148	1	0.000299653	41	21.899	-6.43962e-06
2	0	0	1	0	93.1563	0.744981	0.744715	-0.00648012	1	0.000287737	41	23.4482	-4.82585e-06
2	0	0	1	0	94.7055	0.713997	0.713526	-0.00497914	1	0.000278388	41	24.9974	-3.55275e-06
2	0	0	1	0	96.2847	0.682413	0.682149	-0.00434189	1	0.000270785	42	26.5766	-2.96182e-06
2	0	0	1	0	97.8339	0.651428	0.651354	-0.00369707	1	0.000264586	42	28.1258	-2.4081e-06
2	0	0	1	0	99.3831	0.620444	0.62016	-0.00321728	1	0.000259245	42	29.675	-1.99523e-06
2	0	0	1	0	100.932	0.589459	0.588862	-0.00289573	1	0.00025452	42	31.2242	-1.70519e-06
2	0	0	1	0	102.482	0.558476	0.557882	-0.0026464	1	0.000250241	42	32.7735	-1.47638e-06
[...]
2	0	0	1	0	116.425	0.279615	0.27927	-0.00162708	1	0.000219513	42	46.7166	-4.54395e-07
2	0	0	1	0	117.974	0.24863	0.247838	-0.00151833	1	0.000217067	42	48.2658	-3.76299e-07
2	0	0	1	0	119.523	0.217646	0.217107	-0.00139856	1	0.0002148	42	49.815	-3.03636e-07
2	0	0	1	0	121.072	0.186661	0.186214	-0.0013227	1	0.000212685	42	51.3642	-2.46305e-07
2	0	0	1	0	122.621	0.155677	0.154997	-0.00128006	1	0.000210668	42	52.9134	-1.98404e-07
2	0	0	1	0	124.171	0.124692	0.124678	-0.0013106	1	0.000208665	42	54.4626	-1.63403e-07
2	0	0	1	0	125.72	0.0937079	0.0933175	-0.00145154	1	0.000206539	42	56.0118	-1.35454e-07
2	0	0	1	0	127.269	0.0627235	0.0625624	-0.00181577	1	0.000204042	42	57.561	-1.13599e-07
2	0	0	1	0	128.818	0.0317399	0.0314441	-0.00257977	1	0.000200699	42	59.1103	-8.11185e-08
2	0	0	1	0	130.368	0.000754585	0.000547756	-0.00403606	1	0.00019567	42	60.6596	-2.21078e-09
2	0	0	1	0	131.917	-0.0302299	-0.0304032	-0.00640212	1	0.00018769	42	62.2088	1.94645e-07
2	0	0	1	0	133.466	-0.0612144	-0.0612624	-0.00941421	1	0.000175458	42	63.758	5.76738e-07
2	0	0	1	0	135.045	-0.0927985	-0.093224	-0.0119571	1	0.000158345	41	65.3372	1.11469e-06
2	0	0	1	0	136.594	-0.123783	-0.123901	-0.0132845	1	0.000138455	41	66.8864	1.64597e-06
2	0	0	1	0	138.144	-0.154767	-0.155357	-0.0134184	1	0.000117525	41	68.4356	2.08464e-06
2	0	0	1	0	139.693	-0.185752	-0.186275	-0.01302	1	9.68954e-05	41	69.9848	2.42529e-06
2	0	0	1	0	141.242	-0.216736	-0.217135	-0.012529	1	7.70269e-05	41	71.534	2.72049e-06
2	0	0	1	0	142.791	-0.247721	-0.247835	-0.0121797	1	5.78456e-05	41	73.0833	3.01855e-06
2	0	0	1	0	144.341	-0.278705	-0.278987	-0.0121134	1	3.90135e-05	41	74.6326	3.37946e-06
2	0	0	1	1	145.785	-0.292398	-0.292593	-0.0112637	1	2.16212e-05	41	76.0772	3.29567e-06
2	0	0	1	1	147.334	-0.261414	-0.26186	-0.00937629	1	5.82454e-06	41	77.6264	2.45528e-06
2	0	0	1	1	148.884	-0.23043	-0.230681	-0.00808512	1	-7.60984e-06	41	79.1756	1.86509e-06
2	0	0	1	1	150.433	-0.199445	-0.199491	-0.00703668	1	-1.92515e-05	41	80.7248	1.40375e-06
2	0	0	1	1	151.982	-0.168462	-0.168753	-0.00604354	1	-2.93063e-05	41	82.2741	1.01986e-06
2	0	0	1	1	153.531	-0.137476	-0.137705	-0.00505683	1	-3.78104e-05	41	83.8234	6.96352e-07
2	0	0	1	1	155.111	-0.105892	-0.106199	-0.00391503	1	-4.48325e-05	42	85.4026	4.15774e-07
2	0	0	1	1	156.66	-0.0749075	-0.074853	-0.00283681	1	-5.00502e-05	42	86.9518	2.12344e-07
2	0	0	1	1	158.209	-0.043923	-0.044007	-0.00182141	1	-5.36286e-05	42	88.501	8.0155e-08
2	0	0	1	1	159.758	-0.0129386	-0.0132209	-0.00104683	1	-5.5805e-05	42	90.0502	1.38401e-08
2	0	0	1	1	161.307	0.0180459	0.0176649	-0.000514418	1	-5.6978e-05	42	91.5994	-9.08714e-09
2	0	0	1	1	162.947	0.0508295	0.0506198	-0.000160384	1	-5.75061e-05	43	93.2386	-8.11863e-09
2	1	0	1	1	164.496	0.0818139	0.0819273	3.82656e-05	1	-5.75875e-05	43	0.2998	3.13499e-09
2	1	0	1	1	166.045	0.112798	0.112695	0.000155948	1	-5.74296e-05	43	1.849	1.75746e-08
2	1	0	1	1	167.594	0.143783	0.14369	0.000236365	1	-5.71223e-05	43	3.3982	3.39632e-08
2	1	0	1	1	169.144	0.174766	0.174678	0.000299239	1	-5.67081e-05	43	4.9475	5.22704e-08
2	1	0	1	1	170.693	0.205752	0.205397	0.000391697	1	-5.61793e-05	43	6.4968	8.04531e-08
2	1	0	1	1	172.242	0.236736	0.23659	0.000588192	1	-5.54348e-05	43	8.046	1.3916e-07
2	1	0	1	1	173.791	0.267721	0.267406	0.000801272	1	-5.43374e-05	43	9.5952	2.14264e-07
2	1	0	1	1	175.34	0.298705	0.298334	0.000757447	1	-5.3095e-05	43	11.1444	2.25972e-07
2	1	0	1	1	176.89	0.32969	0.329541	0.00065064	1	-5.20195e-05	43	12.6936	2.14413e-07
2	1	0	1	1	178.439	0.360674	0.360613	0.000680883	1	-5.09982e-05	43	14.2428	2.45535e-07
2	1	0	1	1	179.94	0.390709	0.39007	0.000799615	1	-4.99029e-05	43	15.7437	3.11906e-07