Folder: Thesis/Python/Experiments/IRFB/240515-Paper-1p5M_FeCl2FeCl3-1M_HCl/Data

File: 240515-EIS-Paper-1p5M_FeCl2FeCl3-1M_HCl-Wamup_10mLmin-4xFlowRate-20mHz_10ppd_02_PEIS_C15.mpt
EC-Lab ASCII FILE
Nb header lines : 75

Potentio Electrochemical Impedance Spectroscopy

Run on channel : 15 (SN 19485)
User :
Electrode connection : standard
Potential control : Ewe
Ewe ctrl range : min = -1.00 V, max = 1.00 V
Ewe,I filtering : 50 kHz
Safety Limits :
	Do not start on E overload
Channel : Grounded
Acquisition started on : 05/15/2024 11:35:32.904
Loaded Setting File :  C:\Data\mathias\IRFB\240507-EIS-Cloth-1p5M_FeCl2FeCl3-1M_HCl-Wamup_10mLmin-4xFlowRate-20mHz_10ppd.mps
Saved on :
	File : 240515-EIS-Paper-1p5M_FeCl2FeCl3-1M_HCl-Wamup_10mLmin-4xFlowRate-20mHz_10ppd_02_PEIS_C15.mpr
	Directory : C:\Data\mathias\IRFB\
	Host : 192.168.0.1
Device : VMP-300 (SN 0826)
Address : USB
EC-Lab for windows v11.52 (software)
Internet server v11.52 (firmware)
Command interpretor v11.52 (firmware)
Electrode material :
Initial state :
Electrolyte :
Comments :
Cable : special
Electrode surface area : 0.001 cm²
Characteristic mass : 0.001 g
Equivalent Weight : 0.000 g/eq.
Density : 0.000 g/cm3
Volume (V) : 0.001 cm³
Record EIS quality indicators
Cycle Definition : Charge/Discharge alternance
External device configuration :
   device type : Other
   device name : Other
   Analog OUT :
      mode : E/V
      unit : KNF Pump/ml/min
      max : 120.000 at 5.000 V
      min : 0.000 at 0.000 V
      current : 3.400
Mode                Single sine
E (V)               0.0000
vs.                 Eoc
tE (h:m:s)          0:00:0.0000
record              0
dI                  0.000
unit dI             mA
dt (s)              0.000
fi                  220.000
unit fi             kHz
ff                  20.000
unit ff             mHz
Nd                  10
Points              per decade
spacing             Logarithmic
Va (mV)             5.0
pw                  0.10
Na                  3
corr                0
E range min (V)     -1.000
E range max (V)     1.000
I Range             Auto
Bandwidth           8
nc cycles           59
goto Ns'            0
nr cycles           0
inc. cycle          0

freq/Hz	Re(Z)/Ohm	-Im(Z)/Ohm	|Z|/Ohm	Phase(Z)/deg	time/s	<Ewe>/V	<I>/mA	Cs/µF	Cp/µF	cycle number	I Range	|Ewe|/V	|I|/A	Ns	(Q-Qo)/mA.h	Analog OUT/V	THD Ewe/%	NSD Ewe/%	NSR Ewe/%	|Ewe h2|/V	|Ewe h3|/V	|Ewe h4|/V	|Ewe h5|/V	|Ewe h6|/V	|Ewe h7|/V	THD I/%	NSD I/%	NSR I/%	|I h2|/A	|I h3|/A	|I h4|/A	|I h5|/A	|I h6|/A	|I h7|/A	Re(Y)/Ohm-1	Im(Y)/Ohm-1	|Y|/Ohm-1	Phase(Y)/deg	Re(C)/nF	Im(C)/nF	|C|/nF	Phase(C)/deg	Re(M)	Im(M)	|M|	Phase(M)/deg	Re(Permittivity)	Im(Permittivity)	|Permittivity|	Phase(Permittivity)/deg	Re(Resistivity)/Ohm.cm	Im(Resistivity)/Ohm.cm	|Resistivity|/Ohm.cm	Phase(Resistivity)/deg	Re(Conductivity)/mS/cm	Im(Conductivity)/mS/cm	|Conductivity|/mS/cm	Phase(Conductivity)/deg	Tan(Delta)	Loss Angle(Delta)/deg	dq/mA.h
220003	0.102374	-0.0119434	0.103068	6.65432	601.661	-0.00110056	-4.53697	-60.5709	-0.81334	1	37	0.00361437	0.0350677	0	-0.00213302	3.4	-1	-1	-1	0	0	0	0	0	0	-1	-1	-1	0	0	0	0	0	0	9.63696	-1.12429	9.70232	-6.65432	-813.339	6971.6	7018.88	-96.6543	0.0000000E+000	0.0000000E+000	0.0000000E+000	96.6543	0.0000000E+000	0.0000000E+000	0.0000000E+000	-96.6543	0.0000000E+000	0.0000000E+000	0.0000000E+000	6.65432	0.0000000E+000	0.0000000E+000	0.0000000E+000	-6.65432	8.57157	83.3457	-0.00213302
0.322118	0.125678	0.0209802	0.127417	-9.47738	5353.27	-0.00116909	-4.68413	2.35502e+07	638500	4	37	0.00542609	0.0425853	0	-6.51262	3.4	0.121632	0.0680551	0.696904	2.51348e-06	4.10637e-06	1.28531e-06	3.74873e-06	1.62145e-06	8.73258e-07	0.383766	1.25984	0.48058	0.000111178	6.44431e-05	4.95509e-05	6.39026e-05	3.03481e-05	3.39247e-05	7.74113	1.29228	7.84825	9.47738	6.38499e+08	3.8248e+09	3.87773e+09	-80.5226	0.0000000E+000	0.0000000E+000	0.0000000E+000	80.5226	0.0000000E+000	0.0000000E+000	0.0000000E+000	-80.5226	0.0000000E+000	0.0000000E+000	0.0000000E+000	-9.47738	0.0000000E+000	0.0000000E+000	0.0000000E+000	9.47738	5.99029	80.5226	-0.0316964
6.54313	0.109369	0.00465145	0.109468	-2.43532	11403.4	-0.00119302	-4.82336	5.22933e+06	9441.72	8	37	0.00544243	0.0497172	0	-14.9166	3.4	0.242693	0.129996	3.67486	4.81784e-06	3.70658e-06	4.213e-06	5.56224e-06	6.62997e-06	4.09675e-06	0.144267	0.107352	0.342087	4.42821e-05	3.59087e-05	7.88263e-06	3.81334e-05	7.20324e-06	1.18683e-05	9.12686	0.388165	9.13511	2.43532	9.44171e+06	2.22002e+08	2.22202e+08	-87.5647	0.0000000E+000	0.0000000E+000	0.0000000E+000	87.5647	0.0000000E+000	0.0000000E+000	0.0000000E+000	-87.5647	0.0000000E+000	0.0000000E+000	0.0000000E+000	-2.43532	0.0000000E+000	0.0000000E+000	0.0000000E+000	2.43532	23.5128	87.5647	-0.00218256
132.916	0.104692	0.0022785	0.104717	-1.24678	17530.3	-0.00115238	-5.47192	525524	248.805	12	37	0.00548402	0.05237	0	-23.9388	3.4	0.33371	0.113462	5.14905	4.94508e-06	8.01639e-06	6.29058e-06	6.07097e-06	9.76937e-06	5.01774e-06	0.0774246	0.0226179	0.419571	5.50056e-06	2.87736e-05	6.32333e-06	2.56144e-05	5.73758e-06	5.04841e-06	9.54731	0.207786	9.54957	1.24678	248805	1.1432e+07	1.14347e+07	-88.7532	0.0000000E+000	0.0000000E+000	0.0000000E+000	88.7532	0.0000000E+000	0.0000000E+000	0.0000000E+000	-88.7532	0.0000000E+000	0.0000000E+000	0.0000000E+000	-1.24678	0.0000000E+000	0.0000000E+000	0.0000000E+000	1.24678	45.9477	88.7532	-0.00166764
2699.14	0.100562	0.00202977	0.100583	-1.15632	23655.5	-0.00120167	-5.92525	29050.1	11.8303	16	37	0.00517091	0.0514096	0	-33.0762	3.4	0.344325	0.168871	5.54642	6.61089e-06	9.36037e-06	3.39038e-06	5.45017e-06	6.10805e-06	7.31005e-06	0.077819	0.0139235	0.426707	5.10363e-06	3.78207e-05	3.65908e-06	7.06569e-06	5.84179e-06	4.24484e-06	9.94005	0.200633	9.94208	1.15632	11830.4	586117	586236	-88.8437	0.0000000E+000	0.0000000E+000	0.0000000E+000	88.8437	0.0000000E+000	0.0000000E+000	0.0000000E+000	-88.8437	0.0000000E+000	0.0000000E+000	0.0000000E+000	-1.15632	0.0000000E+000	0.0000000E+000	0.0000000E+000	1.15632	49.5435	88.8437	-0.00213454
54808.1	0.0990075	-0.00335299	0.0990643	1.93964	29781.6	-0.00107499	-4.12571	-866.051	-0.992139	20	37	0.00519845	0.0524755	0	-42.2994	3.4	0.273145	0.184199	5.46876	4.77177e-06	8.03131e-06	5.50905e-06	3.53901e-06	5.49274e-06	5.02371e-06	0.115554	0.0519597	0.40085	5.77332e-06	5.92941e-05	5.00974e-06	6.36269e-06	3.51799e-06	5.35276e-06	10.0887	-0.341663	10.0945	-1.93964	-992.14	29296.1	29312.9	-91.9396	0.0000000E+000	0.0000000E+000	0.0000000E+000	91.9396	0.0000000E+000	0.0000000E+000	0.0000000E+000	-91.9396	0.0000000E+000	0.0000000E+000	0.0000000E+000	1.93964	0.0000000E+000	0.0000000E+000	0.0000000E+000	-1.93964	29.5282	88.0604	-0.00135885
0.0802383	0.151775	0.0413064	0.157296	-15.2246	34804.7	-0.00114644	-5.08509	4.80199e+07	3.31149e+06	23	37	0.00541462	0.0344232	0	-49.8392	3.4	0.124049	0.108872	0.371833	2.73025e-06	3.38574e-06	1.56218e-06	4.21055e-06	1.17692e-06	1.61343e-06	1.32872	3.59434	1.37417	0.000323169	0.000203105	0.000138757	0.00014318	8.77128e-05	6.70299e-05	6.13434	1.66949	6.35746	15.2246	3.31149e+09	1.21676e+10	1.26102e+10	-74.7754	0.0000000E+000	0.0000000E+000	0.0000000E+000	74.7754	0.0000000E+000	0.0000000E+000	0.0000000E+000	-74.7754	0.0000000E+000	0.0000000E+000	0.0000000E+000	-15.2246	0.0000000E+000	0.0000000E+000	0.0000000E+000	15.2246	3.67437	74.7754	-0.112872
[...]
0.406108	0.125367	0.0187847	0.126767	-8.52164	69821.2	-0.00114811	-5.21408	2.08629e+07	458111	46	37	0.00542675	0.0428089	0	-102.087	3.4	0.119328	0.0734125	0.783207	3.2181e-06	3.47232e-06	8.40579e-07	2.76582e-06	2.40404e-06	1.59565e-06	0.223023	1.23304	0.35298	6.34614e-05	4.11114e-05	2.37412e-05	4.07695e-05	1.62618e-05	1.69849e-05	7.8014	1.16894	7.88849	8.52164	4.58111e+08	3.05739e+09	3.09152e+09	-81.4784	0.0000000E+000	0.0000000E+000	0.0000000E+000	81.4784	0.0000000E+000	0.0000000E+000	0.0000000E+000	-81.4784	0.0000000E+000	0.0000000E+000	0.0000000E+000	-8.52164	0.0000000E+000	0.0000000E+000	0.0000000E+000	8.52164	6.67391	81.4784	-0.0274674
8.24973	0.111323	0.00383289	0.111389	-1.97192	75889	-0.00117827	-5.8378	5.03332e+06	5959.62	50	37	0.00543945	0.0488327	0	-111.305	3.4	0.198794	0.134978	3.65505	4.63287e-06	4.77909e-06	4.44372e-06	3.94439e-06	3.67857e-06	3.5652e-06	0.187153	0.0796605	0.32329	4.47014e-05	3.51852e-05	7.68203e-06	3.98977e-05	5.70956e-05	1.01147e-05	8.97219	0.308914	8.97751	1.97192	5.95961e+06	1.73093e+08	1.73195e+08	-88.0281	0.0000000E+000	0.0000000E+000	0.0000000E+000	88.0281	0.0000000E+000	0.0000000E+000	0.0000000E+000	-88.0281	0.0000000E+000	0.0000000E+000	0.0000000E+000	-1.97192	0.0000000E+000	0.0000000E+000	0.0000000E+000	1.97192	29.0443	88.0281	-0.00148083
167.481	0.106217	0.00227034	0.106241	-1.22449	82016.2	-0.00117555	-4.89091	418567	191.145	54	37	0.00527321	0.0496345	0	-120.596	3.4	0.331327	0.111285	5.39038	5.04875e-06	7.87201e-06	4.91067e-06	7.56522e-06	7.19803e-06	6.50086e-06	0.0742269	0.0203514	0.449405	5.99721e-06	2.77645e-05	3.07746e-06	2.16553e-05	4.9998e-06	4.84037e-06	9.41043	0.201144	9.41257	1.22449	191145	8.94261e+06	8.94465e+06	-88.7755	0.0000000E+000	0.0000000E+000	0.0000000E+000	88.7755	0.0000000E+000	0.0000000E+000	0.0000000E+000	-88.7755	0.0000000E+000	0.0000000E+000	0.0000000E+000	-1.22449	0.0000000E+000	0.0000000E+000	0.0000000E+000	1.22449	46.7845	88.7755	-0.00155263
3403.27	0.100809	0.00184631	0.100826	-1.04925	88141.2	-0.00121429	-5.37857	25329.1	8.4935	58	37	0.00515266	0.0511047	0	-129.89	3.4	0.406159	0.171409	5.52887	5.22239e-06	1.41114e-05	5.79558e-06	5.23455e-06	6.85924e-06	8.40014e-06	0.0829854	0.0496927	0.429373	4.30712e-06	4.01263e-05	1.62921e-06	9.64013e-06	5.09584e-06	3.20625e-06	9.91645	0.18162	9.91811	1.04925	8493.51	463746	463824	-88.9507	0.0000000E+000	0.0000000E+000	0.0000000E+000	88.9507	0.0000000E+000	0.0000000E+000	0.0000000E+000	-88.9507	0.0000000E+000	0.0000000E+000	0.0000000E+000	-1.04925	0.0000000E+000	0.0000000E+000	0.0000000E+000	1.04925	54.6001	88.9507	-0.00194614
0.0199946	0.207409	0.036226	0.210549	-9.90734	92725.1	-0.00115361	-5.48392	2.19729e+08	6.50464e+06	60	37	0.00539821	0.0256388	0	-136.824	3.4	0.109762	0.0956432	0.224212	1.60138e-06	3.37916e-06	1.42737e-06	3.83603e-06	1.59344e-06	6.21688e-07	3.81741	0.241687	4.58814	6.17373e-05	0.000126732	0.000657647	0.000430499	0.000556646	9.75058e-05	4.67867	0.817176	4.7495	9.90734	6.50464e+09	3.72417e+10	3.78055e+10	-80.0927	0.0000000E+000	0.0000000E+000	0.0000000E+000	80.0927	0.0000000E+000	0.0000000E+000	0.0000000E+000	-80.0927	0.0000000E+000	0.0000000E+000	0.0000000E+000	-9.90734	0.0000000E+000	0.0000000E+000	0.0000000E+000	9.90734	5.72541	80.0927	-0.451566

File: 240515-EIS-Paper-1p5M_FeCl2FeCl3-1M_HCl-Wamup_10mLmin-4xFlowRate-20mHz_10ppd_03_PEIS_C15.mpt
EC-Lab ASCII FILE
Nb header lines : 75

Potentio Electrochemical Impedance Spectroscopy

Run on channel : 15 (SN 19485)
User :
Electrode connection : standard
Potential control : Ewe
Ewe ctrl range : min = -1.00 V, max = 1.00 V
Ewe,I filtering : 50 kHz
Safety Limits :
	Do not start on E overload
Channel : Grounded
Acquisition started on : 05/15/2024 11:35:32.904
Loaded Setting File :  C:\Data\mathias\IRFB\240507-EIS-Cloth-1p5M_FeCl2FeCl3-1M_HCl-Wamup_10mLmin-4xFlowRate-20mHz_10ppd.mps
Saved on :
	File : 240515-EIS-Paper-1p5M_FeCl2FeCl3-1M_HCl-Wamup_10mLmin-4xFlowRate-20mHz_10ppd_03_PEIS_C15.mpr
	Directory : C:\Data\mathias\IRFB\
	Host : 192.168.0.1
Device : VMP-300 (SN 0826)
Address : USB
EC-Lab for windows v11.52 (software)
Internet server v11.52 (firmware)
Command interpretor v11.52 (firmware)
Electrode material :
Initial state :
Electrolyte :
Comments :
Cable : special
Electrode surface area : 0.001 cm²
Characteristic mass : 0.001 g
Equivalent Weight : 0.000 g/eq.
Density : 0.000 g/cm3
Volume (V) : 0.001 cm³
Record EIS quality indicators
Cycle Definition : Charge/Discharge alternance
External device configuration :
   device type : Other
   device name : Other
   Analog OUT :
      mode : E/V
      unit : KNF Pump/ml/min
      max : 120.000 at 5.000 V
      min : 0.000 at 0.000 V
      current : 3.400
Mode                Single sine
E (V)               0.0000
vs.                 Eoc
tE (h:m:s)          0:10:0.0000
record              0
dI                  0.000
unit dI             mA
dt (s)              0.000
fi                  220.000
unit fi             kHz
ff                  20.000
unit ff             mHz
Nd                  10
Points              per decade
spacing             Logarithmic
Va (mV)             5.0
pw                  0.10
Na                  3
corr                0
E range min (V)     -1.000
E range max (V)     1.000
I Range             Auto
Bandwidth           8
nc cycles           2
goto Ns'            0
nr cycles           0
inc. cycle          0

freq/Hz	Re(Z)/Ohm	-Im(Z)/Ohm	|Z|/Ohm	Phase(Z)/deg	time/s	<Ewe>/V	<I>/mA	Cs/µF	Cp/µF	cycle number	I Range	|Ewe|/V	|I|/A	Ns	(Q-Qo)/mA.h	Analog OUT/V	THD Ewe/%	NSD Ewe/%	NSR Ewe/%	|Ewe h2|/V	|Ewe h3|/V	|Ewe h4|/V	|Ewe h5|/V	|Ewe h6|/V	|Ewe h7|/V	THD I/%	NSD I/%	NSR I/%	|I h2|/A	|I h3|/A	|I h4|/A	|I h5|/A	|I h6|/A	|I h7|/A	Re(Y)/Ohm-1	Im(Y)/Ohm-1	|Y|/Ohm-1	Phase(Y)/deg	Re(C)/nF	Im(C)/nF	|C|/nF	Phase(C)/deg	Re(M)	Im(M)	|M|	Phase(M)/deg	Re(Permittivity)	Im(Permittivity)	|Permittivity|	Phase(Permittivity)/deg	Re(Resistivity)/Ohm.cm	Im(Resistivity)/Ohm.cm	|Resistivity|/Ohm.cm	Phase(Resistivity)/deg	Re(Conductivity)/mS/cm	Im(Conductivity)/mS/cm	|Conductivity|/mS/cm	Phase(Conductivity)/deg	Tan(Delta)	Loss Angle(Delta)/deg	dq/mA.h
220003	0.0950294	-0.0119692	0.0957803	7.17875	93326.6	-0.00104816	-4.87359	-60.4403	-0.943856	1	37	0.00338024	0.0352916	0	-0.899556	3.4	-1	-1	-1	0	0	0	0	0	0	-1	-1	-1	0	0	0	0	0	0	10.3587	-1.30471	10.4406	-7.17875	-943.857	7493.74	7552.95	-97.1788	0.0000000E+000	0.0000000E+000	0.0000000E+000	97.1788	0.0000000E+000	0.0000000E+000	0.0000000E+000	-97.1788	0.0000000E+000	0.0000000E+000	0.0000000E+000	7.17875	0.0000000E+000	0.0000000E+000	0.0000000E+000	-7.17875	7.93949	82.8212	-0.899556
8590.41	0.0998588	0.000857781	0.0998625	-0.492155	93342.6	-0.00116482	-5.42791	21598.8	1.59359	1	37	0.00525091	0.0525814	0	-0.920773	3.4	0.395207	0.172006	5.41846	6.64775e-06	1.06642e-05	4.28437e-06	7.33497e-06	7.3132e-06	7.9403e-06	0.125415	0.0568294	0.407938	9.58886e-06	6.33041e-05	4.68131e-06	1.25758e-05	5.86694e-06	4.75501e-06	10.0134	0.0860145	10.0138	0.492155	1593.6	185519	185526	-89.5078	0.0000000E+000	0.0000000E+000	0.0000000E+000	89.5078	0.0000000E+000	0.0000000E+000	0.0000000E+000	-89.5078	0.0000000E+000	0.0000000E+000	0.0000000E+000	-0.492155	0.0000000E+000	0.0000000E+000	0.0000000E+000	0.492155	116.415	89.5078	-0.00161871
335.537	0.104704	0.00236915	0.104731	-1.29621	93360.8	-0.00116869	-5.01116	200210	102.452	1	37	0.0053516	0.0510985	0	-0.947606	3.4	0.287573	0.171801	5.29244	7.86277e-06	4.08978e-06	3.26227e-06	7.56106e-06	4.86631e-06	6.47951e-06	0.0467295	0.0118212	0.43571	6.70532e-06	1.64631e-05	3.79441e-06	1.3512e-05	5.03621e-06	4.2995e-06	9.54582	0.215994	9.54826	1.29621	102452	4.52786e+06	4.52902e+06	-88.7038	0.0000000E+000	0.0000000E+000	0.0000000E+000	88.7038	0.0000000E+000	0.0000000E+000	0.0000000E+000	-88.7038	0.0000000E+000	0.0000000E+000	0.0000000E+000	-1.29621	0.0000000E+000	0.0000000E+000	0.0000000E+000	1.29621	44.1948	88.7038	-0.00145586
13.1083	0.109479	0.00354687	0.109536	-1.85561	93376.6	-0.00114343	-5.39575	3.42318e+06	3589.26	1	37	0.0054409	0.0496721	0	-0.971134	3.4	0.282338	0.0829324	3.73886	7.04453e-06	5.45953e-06	6.57675e-06	4.65483e-06	6.50542e-06	5.61757e-06	0.137747	0.0934961	0.358993	1.58124e-05	3.59785e-05	3.86285e-05	3.66189e-05	5.78816e-06	5.24473e-06	9.12461	0.295617	9.1294	1.85561	3.58926e+06	1.10787e+08	1.10845e+08	-88.1444	0.0000000E+000	0.0000000E+000	0.0000000E+000	88.1444	0.0000000E+000	0.0000000E+000	0.0000000E+000	-88.1444	0.0000000E+000	0.0000000E+000	0.0000000E+000	-1.85561	0.0000000E+000	0.0000000E+000	0.0000000E+000	1.85561	30.8663	88.1444	-0.00157652
0.511825	0.121615	0.0166001	0.122743	-7.77263	93437.3	-0.00115015	-5.01491	1.87322e+07	342621	1	37	0.00543028	0.044241	0	-1.06165	3.4	0.1151	0.0496032	0.864852	1.99006e-06	3.73096e-06	1.3981e-06	3.38496e-06	2.31218e-06	3.13046e-07	0.129654	0.583875	0.282484	3.38703e-05	2.73589e-05	9.59283e-06	3.18397e-05	1.06787e-05	7.72697e-06	8.07224	1.10183	8.1471	7.77263	3.42621e+08	2.51011e+09	2.53339e+09	-82.2274	0.0000000E+000	0.0000000E+000	0.0000000E+000	82.2274	0.0000000E+000	0.0000000E+000	0.0000000E+000	-82.2274	0.0000000E+000	0.0000000E+000	0.0000000E+000	-7.77263	0.0000000E+000	0.0000000E+000	0.0000000E+000	7.77263	7.32621	82.2274	-0.0155153
0.0199946	0.207403	0.0364082	0.210575	-9.95645	94860.7	-0.00116006	-5.36154	2.18629e+08	6.53575e+06	1	37	0.00539798	0.0256345	0	-3.16506	3.4	0.124344	0.129274	0.223421	2.16047e-06	4.18626e-06	2.17848e-06	3.72633e-06	1.75468e-06	7.64498e-07	3.69065	0.27294	4.7157	6.06316e-05	0.000125703	0.000672983	0.000460023	0.000412507	0.000198214	4.67739	0.821085	4.74891	9.95645	6.53575e+09	3.72315e+10	3.78008e+10	-80.0436	0.0000000E+000	0.0000000E+000	0.0000000E+000	80.0436	0.0000000E+000	0.0000000E+000	0.0000000E+000	-80.0436	0.0000000E+000	0.0000000E+000	0.0000000E+000	-9.95645	0.0000000E+000	0.0000000E+000	0.0000000E+000	9.95645	5.6966	80.0436	-0.420324
10837.3	0.0995015	0.000528241	0.099503	-0.304173	94876.8	-0.00107968	-4.80841	27801.4	0.783537	2	37	0.00514131	0.0516699	0	-3.19587	3.4	0.310749	0.175638	5.65574	8.16891e-06	4.79469e-06	4.53858e-06	7.24679e-06	3.99593e-06	7.83795e-06	0.146763	0.0320993	0.402342	4.28455e-06	4.77672e-05	5.10706e-06	6.07436e-06	6.24266e-06	5.7752e-05	10.0498	0.0533531	10.05	0.304173	783.545	147590	147592	-89.6958	0.0000000E+000	0.0000000E+000	0.0000000E+000	89.6958	0.0000000E+000	0.0000000E+000	0.0000000E+000	-89.6958	0.0000000E+000	0.0000000E+000	0.0000000E+000	-0.304173	0.0000000E+000	0.0000000E+000	0.0000000E+000	0.304173	188.364	89.6958	-0.00161251
[...]
533.464	0.104097	0.00239536	0.104125	-1.31819	96429.3	-0.00118493	-5.68206	124550	65.9139	3	37	0.00506854	0.0486775	0	-5.46579	3.4	0.336879	0.162653	5.5993	5.90358e-06	1.01042e-05	7.94401e-06	4.10625e-06	4.41246e-06	3.63443e-06	0.0436557	0.0171831	0.455433	8.24395e-06	1.02531e-05	5.18503e-06	1.51503e-05	2.4925e-06	2.45123e-06	9.60132	0.220934	9.60386	1.31819	65913.7	2.86448e+06	2.86524e+06	-88.6818	0.0000000E+000	0.0000000E+000	0.0000000E+000	88.6818	0.0000000E+000	0.0000000E+000	0.0000000E+000	-88.6818	0.0000000E+000	0.0000000E+000	0.0000000E+000	-1.31819	0.0000000E+000	0.0000000E+000	0.0000000E+000	1.31819	43.4579	88.6818	-0.0020196
20.8333	0.108609	0.00305014	0.108652	-1.60865	96445.2	-0.0011689	-5.02832	2.50462e+06	1973.81	3	37	0.00543504	0.0500224	0	-5.48975	3.4	0.261827	0.16645	5.27441	3.44306e-06	6.1293e-06	4.79e-06	4.9765e-06	5.29393e-06	7.4649e-06	0.135688	0.108382	0.42398	9.83259e-06	4.53222e-05	7.96537e-06	4.40989e-05	7.12939e-06	1.56316e-05	9.20006	0.25837	9.20368	1.60865	1.9738e+06	7.02833e+07	7.0311e+07	-88.3914	0.0000000E+000	0.0000000E+000	0.0000000E+000	88.3914	0.0000000E+000	0.0000000E+000	0.0000000E+000	-88.3914	0.0000000E+000	0.0000000E+000	0.0000000E+000	-1.60865	0.0000000E+000	0.0000000E+000	0.0000000E+000	1.60865	35.608	88.3914	-0.00138904
0.813551	0.118138	0.0130749	0.118859	-6.31553	96486.2	-0.00117306	-5.43668	1.49622e+07	181055	3	37	0.00543123	0.0456946	0	-5.55275	3.4	0.112633	0.102039	1.10009	1.24827e-06	3.44041e-06	1.2029e-06	3.71193e-06	1.89393e-06	1.63339e-06	0.168709	0.364393	0.299765	4.11767e-05	3.73755e-05	2.02228e-05	4.44083e-05	1.20532e-05	4.39222e-06	8.36226	0.925496	8.41332	6.31553	1.81055e+08	1.63591e+09	1.6459e+09	-83.6845	0.0000000E+000	0.0000000E+000	0.0000000E+000	83.6845	0.0000000E+000	0.0000000E+000	0.0000000E+000	-83.6845	0.0000000E+000	0.0000000E+000	0.0000000E+000	-6.31553	0.0000000E+000	0.0000000E+000	0.0000000E+000	6.31553	9.03544	83.6845	-0.0148756
0.0317924	0.191182	0.0457502	0.19658	-13.4579	97383.5	-0.00117591	-5.37676	1.09422e+08	5.92668e+06	3	37	0.00540399	0.0274901	0	-6.85979	3.4	0.131636	0.164963	0.25803	3.36714e-06	4.05106e-06	9.29928e-07	3.69531e-06	2.37873e-06	9.23385e-07	2.8823	0.939204	4.54548	0.000585331	0.000411482	0.000256264	0.000136885	0.000148687	5.03768e-05	4.94731	1.1839	5.08699	13.4579	5.92668e+09	2.47665e+10	2.54658e+10	-76.5421	0.0000000E+000	0.0000000E+000	0.0000000E+000	76.5421	0.0000000E+000	0.0000000E+000	0.0000000E+000	-76.5421	0.0000000E+000	0.0000000E+000	0.0000000E+000	-13.4579	0.0000000E+000	0.0000000E+000	0.0000000E+000	13.4579	4.17882	76.5421	-0.262681
0.0199946	0.207423	0.0364252	0.210597	-9.96007	97931.6	-0.00116729	-5.48483	2.18527e+08	6.53742e+06	3	37	0.00540213	0.0256516	0	-7.67754	3.4	0.116985	0.138882	0.225147	1.3558e-06	3.80656e-06	1.60656e-06	3.71532e-06	1.81022e-06	1.00173e-06	3.84547	0.402696	4.72268	9.28384e-05	0.000117261	0.000663756	0.00045045	0.000541594	0.000110396	4.67685	0.821294	4.74842	9.96007	6.53742e+09	3.72272e+10	3.77969e+10	-80.0399	0.0000000E+000	0.0000000E+000	0.0000000E+000	80.0399	0.0000000E+000	0.0000000E+000	0.0000000E+000	-80.0399	0.0000000E+000	0.0000000E+000	0.0000000E+000	-9.96007	0.0000000E+000	0.0000000E+000	0.0000000E+000	9.96007	5.69449	80.0399	-0.469838