Folder: Thesis/Python/Experiments/IRFB/240515-Paper-1p5M_FeCl2FeCl3-1M_HCl/Data (part 3)

File: 240515-EIS-Paper-1p5M_FeCl2FeCl3-1M_HCl-Wamup_10mLmin-4xFlowRate-20mHz_10ppd_09_PEIS_C15.mpt
EC-Lab ASCII FILE
Nb header lines : 75

Potentio Electrochemical Impedance Spectroscopy

Run on channel : 15 (SN 19485)
User :
Electrode connection : standard
Potential control : Ewe
Ewe ctrl range : min = -1.00 V, max = 1.00 V
Ewe,I filtering : 50 kHz
Safety Limits :
	Do not start on E overload
Channel : Grounded
Acquisition started on : 05/15/2024 11:35:32.904
Loaded Setting File :  C:\Data\mathias\IRFB\240507-EIS-Cloth-1p5M_FeCl2FeCl3-1M_HCl-Wamup_10mLmin-4xFlowRate-20mHz_10ppd.mps
Saved on :
	File : 240515-EIS-Paper-1p5M_FeCl2FeCl3-1M_HCl-Wamup_10mLmin-4xFlowRate-20mHz_10ppd_09_PEIS_C15.mpr
	Directory : C:\Data\mathias\IRFB\
	Host : 192.168.0.1
Device : VMP-300 (SN 0826)
Address : USB
EC-Lab for windows v11.52 (software)
Internet server v11.52 (firmware)
Command interpretor v11.52 (firmware)
Electrode material :
Initial state :
Electrolyte :
Comments :
Cable : special
Electrode surface area : 0.001 cm²
Characteristic mass : 0.001 g
Equivalent Weight : 0.000 g/eq.
Density : 0.000 g/cm3
Volume (V) : 0.001 cm³
Record EIS quality indicators
Cycle Definition : Charge/Discharge alternance
External device configuration :
   device type : Other
   device name : Other
   Analog OUT :
      mode : E/V
      unit : KNF Pump/ml/min
      max : 120.000 at 5.000 V
      min : 0.000 at 0.000 V
      current : 3.400
Mode                Single sine
E (V)               0.0000
vs.                 Eoc
tE (h:m:s)          0:00:0.0000
record              0
dI                  0.000
unit dI             mA
dt (s)              0.000
fi                  220.000
unit fi             kHz
ff                  20.000
unit ff             mHz
Nd                  10
Points              per decade
spacing             Logarithmic
Va (mV)             5.0
pw                  0.10
Na                  3
corr                0
E range min (V)     -1.000
E range max (V)     1.000
I Range             Auto
Bandwidth           8
nc cycles           2
goto Ns'            0
nr cycles           0
inc. cycle          0

freq/Hz	Re(Z)/Ohm	-Im(Z)/Ohm	|Z|/Ohm	Phase(Z)/deg	time/s	<Ewe>/V	<I>/mA	Cs/µF	Cp/µF	cycle number	I Range	|Ewe|/V	|I|/A	Ns	(Q-Qo)/mA.h	Analog OUT/V	THD Ewe/%	NSD Ewe/%	NSR Ewe/%	|Ewe h2|/V	|Ewe h3|/V	|Ewe h4|/V	|Ewe h5|/V	|Ewe h6|/V	|Ewe h7|/V	THD I/%	NSD I/%	NSR I/%	|I h2|/A	|I h3|/A	|I h4|/A	|I h5|/A	|I h6|/A	|I h7|/A	Re(Y)/Ohm-1	Im(Y)/Ohm-1	|Y|/Ohm-1	Phase(Y)/deg	Re(C)/nF	Im(C)/nF	|C|/nF	Phase(C)/deg	Re(M)	Im(M)	|M|	Phase(M)/deg	Re(Permittivity)	Im(Permittivity)	|Permittivity|	Phase(Permittivity)/deg	Re(Resistivity)/Ohm.cm	Im(Resistivity)/Ohm.cm	|Resistivity|/Ohm.cm	Phase(Resistivity)/deg	Re(Conductivity)/mS/cm	Im(Conductivity)/mS/cm	|Conductivity|/mS/cm	Phase(Conductivity)/deg	Tan(Delta)	Loss Angle(Delta)/deg	dq/mA.h
220003	0.0956917	-0.0121885	0.0964648	7.25881	108947	-0.00109165	-8.16927	-59.3531	-0.947554	1	37	0.00339762	0.0352213	0	-0.00357819	14.3	-1	-1	-1	0	0	0	0	0	0	-1	-1	-1	0	0	0	0	0	0	10.2834	-1.30982	10.3665	-7.25881	-947.554	7439.24	7499.35	-97.2588	0.0000000E+000	0.0000000E+000	0.0000000E+000	97.2588	0.0000000E+000	0.0000000E+000	0.0000000E+000	-97.2588	0.0000000E+000	0.0000000E+000	0.0000000E+000	7.25881	0.0000000E+000	0.0000000E+000	0.0000000E+000	-7.25881	7.851	82.7412	-0.00357819
8590.41	0.10018	0.00107673	0.100186	-0.615787	108963	-0.00120433	-9.03137	17206.8	1.98746	1	37	0.0052511	0.0524135	0	-0.0400532	14.3	0.260129	0.229768	5.31931	4.12437e-06	4.94619e-06	5.38669e-06	5.66177e-06	5.2562e-06	3.77638e-06	0.119958	0.0588324	0.417255	6.72518e-06	6.07434e-05	1.0037e-05	7.26465e-06	4.34392e-06	4.72466e-06	9.98086	0.107273	9.98143	0.615787	1987.45	184916	184927	-89.3842	0.0000000E+000	0.0000000E+000	0.0000000E+000	89.3842	0.0000000E+000	0.0000000E+000	0.0000000E+000	-89.3842	0.0000000E+000	0.0000000E+000	0.0000000E+000	-0.615787	0.0000000E+000	0.0000000E+000	0.0000000E+000	0.615787	93.0413	89.3842	-0.00302499
335.537	0.105555	0.00260961	0.105587	-1.41622	108981	-0.00115699	-8.9736	181763	111.029	1	37	0.00536715	0.0508316	0	-0.0852459	14.3	0.223036	0.176089	5.12098	5.07485e-06	5.18685e-06	4.7741e-06	3.99983e-06	3.03217e-06	4.76989e-06	0.0665142	0.0126641	0.415142	2.0221e-05	2.10434e-05	3.90284e-06	1.49786e-05	3.34358e-06	5.41202e-06	9.46799	0.234075	9.47088	1.41622	111029	4.49094e+06	4.49232e+06	-88.5838	0.0000000E+000	0.0000000E+000	0.0000000E+000	88.5838	0.0000000E+000	0.0000000E+000	0.0000000E+000	-88.5838	0.0000000E+000	0.0000000E+000	0.0000000E+000	-1.41622	0.0000000E+000	0.0000000E+000	0.0000000E+000	1.41622	40.4485	88.5838	-0.00268227
13.1083	0.110216	0.00297324	0.110256	-1.54526	108997	-0.00116639	-8.80025	4.08362e+06	2969.62	1	37	0.0054371	0.0493134	0	-0.124102	14.3	0.254294	0.0836311	3.70622	1.68101e-06	5.65587e-06	4.14224e-06	6.1753e-06	6.8167e-06	5.59641e-06	0.146433	0.0819115	0.33113	1.29403e-05	4.6004e-05	2.63355e-05	4.26331e-05	7.0848e-06	1.23958e-05	9.0665	0.244582	9.0698	1.54526	2.96962e+06	1.10082e+08	1.10122e+08	-88.4547	0.0000000E+000	0.0000000E+000	0.0000000E+000	88.4547	0.0000000E+000	0.0000000E+000	0.0000000E+000	-88.4547	0.0000000E+000	0.0000000E+000	0.0000000E+000	-1.54526	0.0000000E+000	0.0000000E+000	0.0000000E+000	1.54526	37.0693	88.4547	-0.00260695
0.511825	0.122377	0.012422	0.123005	-5.79604	109058	-0.00115858	-8.74809	2.50326e+07	255295	1	37	0.0054296	0.0441411	0	-0.271632	14.3	0.116297	0.0591688	0.863105	1.19301e-06	3.6556e-06	1.42342e-06	3.62583e-06	2.29935e-06	1.07754e-06	0.140246	0.0760504	0.287646	1.94022e-05	4.27053e-05	1.75761e-05	3.06338e-05	1.09528e-05	8.12926e-06	8.08816	0.821001	8.12972	5.79604	2.55295e+08	2.51506e+09	2.52798e+09	-84.204	0.0000000E+000	0.0000000E+000	0.0000000E+000	84.204	0.0000000E+000	0.0000000E+000	0.0000000E+000	-84.204	0.0000000E+000	0.0000000E+000	0.0000000E+000	-5.79604	0.0000000E+000	0.0000000E+000	0.0000000E+000	5.79604	9.85158	84.204	-0.0254593
0.0199946	0.142036	0.00180034	0.142047	-0.7262	110481	-0.00115933	-8.74458	4.42133e+09	710228	1	37	0.00541628	0.0381302	0	-3.64674	14.3	0.131426	0.219958	0.223294	2.00364e-06	4.64347e-06	9.76218e-07	3.9569e-06	1.981e-06	1.18166e-06	0.149246	0.261288	0.209788	9.51421e-06	3.73828e-05	1.04198e-05	3.69306e-05	1.18545e-05	9.76739e-06	7.03936	0.0892258	7.03993	0.7262	7.10231e+08	5.60326e+10	5.60371e+10	-89.2738	0.0000000E+000	0.0000000E+000	0.0000000E+000	89.2738	0.0000000E+000	0.0000000E+000	0.0000000E+000	-89.2738	0.0000000E+000	0.0000000E+000	0.0000000E+000	-0.7262	0.0000000E+000	0.0000000E+000	0.0000000E+000	0.7262	78.8938	89.2738	-0.696039
10837.3	0.100044	0.000657312	0.100046	-0.376442	110497	-0.001071	-8.00041	22342.3	0.964433	2	37	0.00514671	0.0514435	0	-3.683	14.3	0.287355	0.128611	5.46841	8.14894e-06	7.45376e-06	3.15976e-06	4.15568e-06	3.6552e-06	6.88457e-06	0.150499	0.0311948	0.40162	6.77977e-06	4.53429e-05	6.99193e-06	7.91647e-06	3.2943e-06	6.12277e-05	9.99519	0.0656708	9.99541	0.376442	964.433	146788	146791	-89.6236	0.0000000E+000	0.0000000E+000	0.0000000E+000	89.6236	0.0000000E+000	0.0000000E+000	0.0000000E+000	-89.6236	0.0000000E+000	0.0000000E+000	0.0000000E+000	-0.376442	0.0000000E+000	0.0000000E+000	0.0000000E+000	0.376442	152.201	89.6236	-0.00250445
[...]
533.464	0.10484	0.00256326	0.104872	-1.40056	112050	-0.00115164	-8.4075	116392	69.533	3	37	0.00508359	0.0484743	0	-7.37492	14.3	0.263466	0.155747	5.50801	5.57727e-06	7.44109e-06	4.19686e-06	5.04508e-06	4.64022e-06	4.11713e-06	0.0461725	0.0135986	0.453718	1.28085e-05	1.09344e-05	2.55105e-06	1.10405e-05	6.50176e-06	4.96415e-06	9.53261	0.233064	9.53546	1.40056	69533.2	2.84398e+06	2.84483e+06	-88.5994	0.0000000E+000	0.0000000E+000	0.0000000E+000	88.5994	0.0000000E+000	0.0000000E+000	0.0000000E+000	-88.5994	0.0000000E+000	0.0000000E+000	0.0000000E+000	-1.40056	0.0000000E+000	0.0000000E+000	0.0000000E+000	1.40056	40.9012	88.5994	-0.00310671
20.8333	0.109866	0.00268582	0.109899	-1.40039	112066	-0.0011431	-8.43333	2.84436e+06	1698.83	3	37	0.00544194	0.0495175	0	-7.41198	14.3	0.301628	0.182569	5.2178	6.0958e-06	9.00422e-06	3.26215e-06	5.56123e-06	5.58293e-06	6.96352e-06	0.107155	0.10897	0.417025	1.02079e-05	2.78149e-05	5.52876e-06	3.89391e-05	1.17081e-05	1.20305e-05	9.09653	0.222376	9.09925	1.40039	1.69883e+06	6.94925e+07	6.95132e+07	-88.5996	0.0000000E+000	0.0000000E+000	0.0000000E+000	88.5996	0.0000000E+000	0.0000000E+000	0.0000000E+000	-88.5996	0.0000000E+000	0.0000000E+000	0.0000000E+000	-1.40039	0.0000000E+000	0.0000000E+000	0.0000000E+000	1.40039	40.906	88.5996	-0.00262899
0.813551	0.119329	0.0100652	0.119753	-4.82136	112107	-0.00114644	-8.48929	1.94363e+07	137304	3	37	0.00543364	0.0453738	0	-7.50748	14.3	0.14201	0.0885292	1.08816	1.48796e-06	4.53995e-06	1.27975e-06	5.07495e-06	2.23726e-06	7.68666e-07	0.125048	0.10842	0.279685	1.2483e-05	3.13689e-05	8.79902e-06	4.05592e-05	1.43915e-05	4.46473e-06	8.32097	0.701856	8.35052	4.82136	1.37304e+08	1.62783e+09	1.63361e+09	-85.1786	0.0000000E+000	0.0000000E+000	0.0000000E+000	85.1786	0.0000000E+000	0.0000000E+000	0.0000000E+000	-85.1786	0.0000000E+000	0.0000000E+000	0.0000000E+000	-4.82136	0.0000000E+000	0.0000000E+000	0.0000000E+000	4.82136	11.8557	85.1786	-0.0169871
0.0317924	0.14239	0.00293107	0.142421	-1.17925	113004	-0.00115617	-8.73356	1.70793e+09	723398	3	37	0.00541991	0.0380557	0	-9.69487	14.3	0.119035	0.110259	0.254212	2.23155e-06	3.60305e-06	1.45877e-06	3.87631e-06	2.06278e-06	7.01541e-07	0.134201	0.123633	0.206063	1.52784e-05	3.17624e-05	1.10275e-05	3.25922e-05	9.15011e-06	5.21227e-06	7.01997	0.144504	7.02146	1.17925	7.23398e+08	3.51424e+10	3.51499e+10	-88.8207	0.0000000E+000	0.0000000E+000	0.0000000E+000	88.8207	0.0000000E+000	0.0000000E+000	0.0000000E+000	-88.8207	0.0000000E+000	0.0000000E+000	0.0000000E+000	-1.17925	0.0000000E+000	0.0000000E+000	0.0000000E+000	1.17925	48.5796	88.8207	-0.445441
0.0199946	0.142642	0.00181733	0.142653	-0.729939	113552	-0.00116226	-8.64037	4.38e+09	710850	3	37	0.00542198	0.0380081	0	-10.9267	14.3	0.104424	0.132663	0.223529	2.23504e-06	2.65746e-06	1.24786e-06	3.54361e-06	2.08487e-06	9.61613e-07	0.14217	0.18819	0.201238	2.42273e-05	3.10999e-05	1.11117e-05	3.29561e-05	7.11257e-06	7.74696e-06	7.00944	0.0893039	7.01001	0.729939	7.10853e+08	5.57944e+10	5.57989e+10	-89.2701	0.0000000E+000	0.0000000E+000	0.0000000E+000	89.2701	0.0000000E+000	0.0000000E+000	0.0000000E+000	-89.2701	0.0000000E+000	0.0000000E+000	0.0000000E+000	-0.729939	0.0000000E+000	0.0000000E+000	0.0000000E+000	0.729939	78.4897	89.2701	-0.688002