Folder: Thesis/Python/Experiments/IRFB/240515-Paper-1p5M_FeCl2FeCl3-1M_HCl/Data (part 2)

File: 240515-EIS-Paper-1p5M_FeCl2FeCl3-1M_HCl-Wamup_10mLmin-4xFlowRate-20mHz_10ppd_05_PEIS_C15.mpt
EC-Lab ASCII FILE
Nb header lines : 75

Potentio Electrochemical Impedance Spectroscopy

Run on channel : 15 (SN 19485)
User :
Electrode connection : standard
Potential control : Ewe
Ewe ctrl range : min = -1.00 V, max = 1.00 V
Ewe,I filtering : 50 kHz
Safety Limits :
	Do not start on E overload
Channel : Grounded
Acquisition started on : 05/15/2024 11:35:32.904
Loaded Setting File :  C:\Data\mathias\IRFB\240507-EIS-Cloth-1p5M_FeCl2FeCl3-1M_HCl-Wamup_10mLmin-4xFlowRate-20mHz_10ppd.mps
Saved on :
	File : 240515-EIS-Paper-1p5M_FeCl2FeCl3-1M_HCl-Wamup_10mLmin-4xFlowRate-20mHz_10ppd_05_PEIS_C15.mpr
	Directory : C:\Data\mathias\IRFB\
	Host : 192.168.0.1
Device : VMP-300 (SN 0826)
Address : USB
EC-Lab for windows v11.52 (software)
Internet server v11.52 (firmware)
Command interpretor v11.52 (firmware)
Electrode material :
Initial state :
Electrolyte :
Comments :
Cable : special
Electrode surface area : 0.001 cm²
Characteristic mass : 0.001 g
Equivalent Weight : 0.000 g/eq.
Density : 0.000 g/cm3
Volume (V) : 0.001 cm³
Record EIS quality indicators
Cycle Definition : Charge/Discharge alternance
External device configuration :
   device type : Other
   device name : Other
   Analog OUT :
      mode : E/V
      unit : KNF Pump/ml/min
      max : 120.000 at 5.000 V
      min : 0.000 at 0.000 V
      current : 3.400
Mode                Single sine
E (V)               0.0000
vs.                 Eoc
tE (h:m:s)          0:00:0.0000
record              0
dI                  0.000
unit dI             mA
dt (s)              0.000
fi                  220.000
unit fi             kHz
ff                  20.000
unit ff             mHz
Nd                  10
Points              per decade
spacing             Logarithmic
Va (mV)             5.0
pw                  0.10
Na                  3
corr                0
E range min (V)     -1.000
E range max (V)     1.000
I Range             Auto
Bandwidth           8
nc cycles           2
goto Ns'            0
nr cycles           0
inc. cycle          0

freq/Hz	Re(Z)/Ohm	-Im(Z)/Ohm	|Z|/Ohm	Phase(Z)/deg	time/s	<Ewe>/V	<I>/mA	Cs/µF	Cp/µF	cycle number	I Range	|Ewe|/V	|I|/A	Ns	(Q-Qo)/mA.h	Analog OUT/V	THD Ewe/%	NSD Ewe/%	NSR Ewe/%	|Ewe h2|/V	|Ewe h3|/V	|Ewe h4|/V	|Ewe h5|/V	|Ewe h6|/V	|Ewe h7|/V	THD I/%	NSD I/%	NSR I/%	|I h2|/A	|I h3|/A	|I h4|/A	|I h5|/A	|I h6|/A	|I h7|/A	Re(Y)/Ohm-1	Im(Y)/Ohm-1	|Y|/Ohm-1	Phase(Y)/deg	Re(C)/nF	Im(C)/nF	|C|/nF	Phase(C)/deg	Re(M)	Im(M)	|M|	Phase(M)/deg	Re(Permittivity)	Im(Permittivity)	|Permittivity|	Phase(Permittivity)/deg	Re(Resistivity)/Ohm.cm	Im(Resistivity)/Ohm.cm	|Resistivity|/Ohm.cm	Phase(Resistivity)/deg	Re(Conductivity)/mS/cm	Im(Conductivity)/mS/cm	|Conductivity|/mS/cm	Phase(Conductivity)/deg	Tan(Delta)	Loss Angle(Delta)/deg	dq/mA.h
220003	0.0955063	-0.0120287	0.0962608	7.1784	98533.4	-0.00109648	-7.3331	-60.1415	-0.939099	1	37	0.00338463	0.035161	0	-0.00339527	4.6	-1	-1	-1	0	0	0	0	0	0	-1	-1	-1	0	0	0	0	0	0	10.307	-1.29813	10.3885	-7.1784	-939.1	7456.34	7515.24	-97.1784	0.0000000E+000	0.0000000E+000	0.0000000E+000	97.1784	0.0000000E+000	0.0000000E+000	0.0000000E+000	-97.1784	0.0000000E+000	0.0000000E+000	0.0000000E+000	7.1784	0.0000000E+000	0.0000000E+000	0.0000000E+000	-7.1784	7.93988	82.8216	-0.00339527
8590.41	0.10003	0.000880781	0.100033	-0.504488	98549.4	-0.00121658	-6.97912	21034.8	1.63074	1	37	0.00524878	0.0524703	0	-0.0322264	4.6	0.293857	0.131293	5.37106	6.05658e-06	6.33626e-06	2.52693e-06	6.50552e-06	7.65932e-06	5.5648e-06	0.118219	0.0599667	0.415364	6.30548e-06	6.03953e-05	5.47378e-06	1.01778e-05	2.54608e-06	2.31925e-06	9.99627	0.0880192	9.99666	0.504488	1630.73	185201	185209	-89.4955	0.0000000E+000	0.0000000E+000	0.0000000E+000	89.4955	0.0000000E+000	0.0000000E+000	0.0000000E+000	-89.4955	0.0000000E+000	0.0000000E+000	0.0000000E+000	-0.504488	0.0000000E+000	0.0000000E+000	0.0000000E+000	0.504488	113.569	89.4955	-0.00228503
335.537	0.105148	0.0024198	0.105176	-1.31833	98567.6	-0.00117852	-6.94953	196020	103.759	1	37	0.00535577	0.050922	0	-0.0676861	4.6	0.292759	0.146872	5.27386	5.2145e-06	5.41757e-06	3.39863e-06	7.05958e-06	4.76109e-06	8.65459e-06	0.0573552	0.0123488	0.429073	1.46589e-05	1.7892e-05	4.30498e-06	1.64885e-05	3.87192e-06	2.79044e-06	9.50535	0.218749	9.50787	1.31833	103759	4.50867e+06	4.50986e+06	-88.6817	0.0000000E+000	0.0000000E+000	0.0000000E+000	88.6817	0.0000000E+000	0.0000000E+000	0.0000000E+000	-88.6817	0.0000000E+000	0.0000000E+000	0.0000000E+000	-1.31833	0.0000000E+000	0.0000000E+000	0.0000000E+000	1.31833	43.4533	88.6817	-0.00211936
13.1083	0.109887	0.00334906	0.109938	-1.74568	98583.4	-0.00117613	-6.6789	3.62537e+06	3364.35	1	37	0.00543923	0.0494753	0	-0.0979551	4.6	0.214053	0.144829	3.68342	5.29781e-06	5.18414e-06	5.04766e-06	2.90441e-06	5.18905e-06	2.39109e-06	0.137875	0.104107	0.338772	1.04083e-05	4.79671e-05	3.36512e-05	3.08788e-05	5.85795e-06	7.73028e-06	9.0918	0.277093	9.09602	1.74568	3.36436e+06	1.10389e+08	1.1044e+08	-88.2543	0.0000000E+000	0.0000000E+000	0.0000000E+000	88.2543	0.0000000E+000	0.0000000E+000	0.0000000E+000	-88.2543	0.0000000E+000	0.0000000E+000	0.0000000E+000	-1.74568	0.0000000E+000	0.0000000E+000	0.0000000E+000	1.74568	32.8113	88.2543	-0.00192786
0.511825	0.122178	0.0154732	0.123154	-7.21779	98644.1	-0.0011586	-6.84232	2.00964e+07	317237	1	37	0.00542694	0.0440665	0	-0.211975	4.6	0.117941	0.0772677	0.883709	2.66585e-06	2.45851e-06	1.79332e-06	3.75189e-06	1.82962e-06	1.76579e-06	0.154513	0.794744	0.305877	3.37534e-05	1.99631e-05	1.95184e-05	4.49514e-05	5.81729e-06	1.06718e-05	8.0556	1.0202	8.11994	7.21779	3.17237e+08	2.50493e+09	2.52494e+09	-82.7822	0.0000000E+000	0.0000000E+000	0.0000000E+000	82.7822	0.0000000E+000	0.0000000E+000	0.0000000E+000	-82.7822	0.0000000E+000	0.0000000E+000	0.0000000E+000	-7.21779	0.0000000E+000	0.0000000E+000	0.0000000E+000	7.21779	7.89609	82.7822	-0.0179604
0.0199946	0.179929	0.0128843	0.18039	-4.09582	100068	-0.00117796	-6.53911	6.17797e+08	3.15169e+06	1	37	0.0054088	0.0299839	0	-2.77343	4.6	0.118846	0.105937	0.227437	2.02951e-06	3.67064e-06	1.93081e-06	3.96507e-06	1.70924e-06	5.30954e-07	0.16441	0.192138	2.58014	1.69045e-05	2.95014e-05	1.57257e-05	2.62899e-05	7.68618e-06	1.37173e-05	5.52938	0.395946	5.54354	4.09582	3.15169e+09	4.40133e+10	4.4126e+10	-85.9042	0.0000000E+000	0.0000000E+000	0.0000000E+000	85.9042	0.0000000E+000	0.0000000E+000	0.0000000E+000	-85.9042	0.0000000E+000	0.0000000E+000	0.0000000E+000	-4.09582	0.0000000E+000	0.0000000E+000	0.0000000E+000	4.09582	13.965	85.9042	-0.540642
10837.3	0.0999114	0.00064695	0.0999135	-0.370999	100084	-0.00107795	-5.81742	22700.1	0.951748	2	37	0.00514067	0.0514512	0	-2.80044	4.6	0.321205	0.20705	5.47774	6.72318e-06	4.56332e-06	5.98823e-06	7.38496e-06	6.08982e-06	5.05952e-06	0.151236	0.0255727	0.404217	6.96844e-06	4.43628e-05	5.57815e-06	5.97723e-06	6.69126e-06	6.25776e-05	10.0084	0.0648071	10.0087	0.370999	951.756	146983	146986	-89.629	0.0000000E+000	0.0000000E+000	0.0000000E+000	89.629	0.0000000E+000	0.0000000E+000	0.0000000E+000	-89.629	0.0000000E+000	0.0000000E+000	0.0000000E+000	-0.370999	0.0000000E+000	0.0000000E+000	0.0000000E+000	0.370999	154.434	89.629	-0.00186681
[...]
533.464	0.104531	0.00249846	0.104561	-1.3692	101636	-0.00118515	-6.48719	119411	68.1786	3	37	0.00507751	0.0485603	0	-5.65129	4.6	0.303159	0.128565	5.61325	7.58835e-06	6.56886e-06	5.42214e-06	5.77516e-06	6.26535e-06	5.22589e-06	0.0492801	0.0102554	0.441993	1.05193e-05	1.44243e-05	3.12758e-06	1.29328e-05	6.05611e-06	4.41108e-06	9.56107	0.228525	9.5638	1.3692	68178.8	2.85247e+06	2.85329e+06	-88.6308	0.0000000E+000	0.0000000E+000	0.0000000E+000	88.6308	0.0000000E+000	0.0000000E+000	0.0000000E+000	-88.6308	0.0000000E+000	0.0000000E+000	0.0000000E+000	-1.3692	0.0000000E+000	0.0000000E+000	0.0000000E+000	1.3692	41.8382	88.6308	-0.00239553
20.8333	0.109303	0.00294875	0.109343	-1.54534	101652	-0.00118388	-6.74203	2.59074e+06	1884.17	3	37	0.00543509	0.049707	0	-5.68065	4.6	0.259126	0.136447	5.19514	6.32931e-06	5.10276e-06	7.32769e-06	5.52433e-06	4.5082e-06	4.12343e-06	0.110668	0.105502	0.419734	9.02097e-06	3.64103e-05	3.26181e-06	3.64042e-05	6.32165e-06	1.45284e-05	9.14225	0.246637	9.14557	1.54534	1.88418e+06	6.98417e+07	6.98671e+07	-88.4547	0.0000000E+000	0.0000000E+000	0.0000000E+000	88.4547	0.0000000E+000	0.0000000E+000	0.0000000E+000	-88.4547	0.0000000E+000	0.0000000E+000	0.0000000E+000	-1.54534	0.0000000E+000	0.0000000E+000	0.0000000E+000	1.54534	37.0675	88.4547	-0.00215483
0.813551	0.118818	0.0124818	0.119471	-5.99693	101693	-0.0011937	-6.70783	1.56732e+07	171074	3	37	0.00543186	0.0454657	0	-5.75505	4.6	0.123972	0.0469817	1.11187	1.76148e-06	2.51273e-06	1.4655e-06	5.31254e-06	1.74076e-06	1.17161e-06	0.11754	0.534313	0.286895	1.46376e-05	2.31027e-05	1.15606e-05	4.06816e-05	5.71121e-06	1.03865e-05	8.3244	0.874478	8.3702	5.99693	1.71074e+08	1.6285e+09	1.63746e+09	-84.0031	0.0000000E+000	0.0000000E+000	0.0000000E+000	84.0031	0.0000000E+000	0.0000000E+000	0.0000000E+000	-84.0031	0.0000000E+000	0.0000000E+000	0.0000000E+000	-5.99693	0.0000000E+000	0.0000000E+000	0.0000000E+000	5.99693	9.51927	84.0031	-0.0122297
0.0317924	0.176429	0.0191415	0.177464	-6.19202	102591	-0.00119582	-6.53294	2.6153e+08	3.04263e+06	3	37	0.0054086	0.0304771	0	-7.41408	4.6	0.152115	0.102086	0.254	4.45898e-06	4.36999e-06	1.88616e-06	4.3164e-06	1.61245e-06	9.86707e-07	0.278901	0.187471	2.2028	1.31101e-05	2.89886e-05	1.46862e-05	1.62821e-05	5.60806e-05	4.92668e-05	5.60206	0.60779	5.63494	6.19202	3.04263e+09	2.80443e+10	2.82088e+10	-83.808	0.0000000E+000	0.0000000E+000	0.0000000E+000	83.808	0.0000000E+000	0.0000000E+000	0.0000000E+000	-83.808	0.0000000E+000	0.0000000E+000	0.0000000E+000	-6.19202	0.0000000E+000	0.0000000E+000	0.0000000E+000	6.19202	9.21711	83.808	-0.339033
0.0199946	0.180109	0.0129926	0.180577	-4.12603	103139	-0.00117246	-6.44567	6.12646e+08	3.1716e+06	3	37	0.00540587	0.0299366	0	-8.32752	4.6	0.1035	0.118921	0.220515	2.36853e-06	2.68972e-06	9.57481e-07	3.28372e-06	1.57128e-06	7.47031e-07	0.192336	0.175158	2.23862	1.93171e-05	2.27068e-05	1.05703e-05	3.79688e-05	1.90824e-05	2.02559e-05	5.52344	0.398448	5.5378	4.12603	3.1716e+09	4.3966e+10	4.40803e+10	-85.874	0.0000000E+000	0.0000000E+000	0.0000000E+000	85.874	0.0000000E+000	0.0000000E+000	0.0000000E+000	-85.874	0.0000000E+000	0.0000000E+000	0.0000000E+000	-4.12603	0.0000000E+000	0.0000000E+000	0.0000000E+000	4.12603	13.8624	85.874	-0.506915

File: 240515-EIS-Paper-1p5M_FeCl2FeCl3-1M_HCl-Wamup_10mLmin-4xFlowRate-20mHz_10ppd_07_PEIS_C15.mpt
EC-Lab ASCII FILE
Nb header lines : 75

Potentio Electrochemical Impedance Spectroscopy

Run on channel : 15 (SN 19485)
User :
Electrode connection : standard
Potential control : Ewe
Ewe ctrl range : min = -1.00 V, max = 1.00 V
Ewe,I filtering : 50 kHz
Safety Limits :
	Do not start on E overload
Channel : Grounded
Acquisition started on : 05/15/2024 11:35:32.904
Loaded Setting File :  C:\Data\mathias\IRFB\240507-EIS-Cloth-1p5M_FeCl2FeCl3-1M_HCl-Wamup_10mLmin-4xFlowRate-20mHz_10ppd.mps
Saved on :
	File : 240515-EIS-Paper-1p5M_FeCl2FeCl3-1M_HCl-Wamup_10mLmin-4xFlowRate-20mHz_10ppd_07_PEIS_C15.mpr
	Directory : C:\Data\mathias\IRFB\
	Host : 192.168.0.1
Device : VMP-300 (SN 0826)
Address : USB
EC-Lab for windows v11.52 (software)
Internet server v11.52 (firmware)
Command interpretor v11.52 (firmware)
Electrode material :
Initial state :
Electrolyte :
Comments :
Cable : special
Electrode surface area : 0.001 cm²
Characteristic mass : 0.001 g
Equivalent Weight : 0.000 g/eq.
Density : 0.000 g/cm3
Volume (V) : 0.001 cm³
Record EIS quality indicators
Cycle Definition : Charge/Discharge alternance
External device configuration :
   device type : Other
   device name : Other
   Analog OUT :
      mode : E/V
      unit : KNF Pump/ml/min
      max : 120.000 at 5.000 V
      min : 0.000 at 0.000 V
      current : 3.400
Mode                Single sine
E (V)               0.0000
vs.                 Eoc
tE (h:m:s)          0:00:0.0000
record              0
dI                  0.000
unit dI             mA
dt (s)              0.000
fi                  220.000
unit fi             kHz
ff                  20.000
unit ff             mHz
Nd                  10
Points              per decade
spacing             Logarithmic
Va (mV)             5.0
pw                  0.10
Na                  3
corr                0
E range min (V)     -1.000
E range max (V)     1.000
I Range             Auto
Bandwidth           8
nc cycles           2
goto Ns'            0
nr cycles           0
inc. cycle          0

freq/Hz	Re(Z)/Ohm	-Im(Z)/Ohm	|Z|/Ohm	Phase(Z)/deg	time/s	<Ewe>/V	<I>/mA	Cs/µF	Cp/µF	cycle number	I Range	|Ewe|/V	|I|/A	Ns	(Q-Qo)/mA.h	Analog OUT/V	THD Ewe/%	NSD Ewe/%	NSR Ewe/%	|Ewe h2|/V	|Ewe h3|/V	|Ewe h4|/V	|Ewe h5|/V	|Ewe h6|/V	|Ewe h7|/V	THD I/%	NSD I/%	NSR I/%	|I h2|/A	|I h3|/A	|I h4|/A	|I h5|/A	|I h6|/A	|I h7|/A	Re(Y)/Ohm-1	Im(Y)/Ohm-1	|Y|/Ohm-1	Phase(Y)/deg	Re(C)/nF	Im(C)/nF	|C|/nF	Phase(C)/deg	Re(M)	Im(M)	|M|	Phase(M)/deg	Re(Permittivity)	Im(Permittivity)	|Permittivity|	Phase(Permittivity)/deg	Re(Resistivity)/Ohm.cm	Im(Resistivity)/Ohm.cm	|Resistivity|/Ohm.cm	Phase(Resistivity)/deg	Re(Conductivity)/mS/cm	Im(Conductivity)/mS/cm	|Conductivity|/mS/cm	Phase(Conductivity)/deg	Tan(Delta)	Loss Angle(Delta)/deg	dq/mA.h
220003	0.0955343	-0.0120191	0.0962874	7.17068	103741	-0.00109262	-7.51004	-60.1893	-0.937835	1	37	0.00338364	0.0351411	0	-0.00340911	7	-1	-1	-1	0	0	0	0	0	0	-1	-1	-1	0	0	0	0	0	0	10.3043	-1.29639	10.3856	-7.17068	-937.835	7454.4	7513.17	-97.1707	0.0000000E+000	0.0000000E+000	0.0000000E+000	97.1707	0.0000000E+000	0.0000000E+000	0.0000000E+000	-97.1707	0.0000000E+000	0.0000000E+000	0.0000000E+000	7.17068	0.0000000E+000	0.0000000E+000	0.0000000E+000	-7.17068	7.94852	82.8293	-0.00340911
8590.41	0.100196	0.000893877	0.1002	-0.511137	103756	-0.00121227	-8.11018	20726.6	1.64948	1	37	0.00524163	0.0523115	0	-0.0357985	7	0.288524	0.159105	5.48395	5.21121e-06	8.89365e-06	4.93054e-06	4.52023e-06	5.99722e-06	3.25143e-06	0.112485	0.0566556	0.414478	2.73125e-06	5.63005e-05	6.04933e-06	1.27801e-05	3.92437e-06	6.69337e-06	9.97962	0.0890309	9.98002	0.511137	1649.49	184893	184900	-89.4889	0.0000000E+000	0.0000000E+000	0.0000000E+000	89.4889	0.0000000E+000	0.0000000E+000	0.0000000E+000	-89.4889	0.0000000E+000	0.0000000E+000	0.0000000E+000	-0.511137	0.0000000E+000	0.0000000E+000	0.0000000E+000	0.511137	112.092	89.4889	-0.00248273
335.537	0.105335	0.00238644	0.105362	-1.29786	103775	-0.00120381	-8.00242	198760	101.968	1	37	0.00535446	0.0508196	0	-0.0762974	7	0.24779	0.14589	5.26959	4.76883e-06	3.87994e-06	4.98808e-06	6.52364e-06	5.56312e-06	5.18414e-06	0.0647729	0.0131125	0.428244	9.69634e-06	2.46512e-05	5.25343e-06	1.58141e-05	4.73519e-06	5.60458e-06	9.48864	0.214972	9.49108	1.29786	101968	4.50074e+06	4.5019e+06	-88.7021	0.0000000E+000	0.0000000E+000	0.0000000E+000	88.7021	0.0000000E+000	0.0000000E+000	0.0000000E+000	-88.7021	0.0000000E+000	0.0000000E+000	0.0000000E+000	-1.29786	0.0000000E+000	0.0000000E+000	0.0000000E+000	1.29786	44.1389	88.7021	-0.00248992
13.1083	0.110165	0.00296931	0.110205	-1.54394	103790	-0.00117574	-7.9968	4.08902e+06	2968.45	1	37	0.00544	0.0493626	0	-0.111144	7	0.238799	0.255552	3.70868	4.59103e-06	5.40788e-06	2.87698e-06	5.97187e-06	3.92952e-06	5.21655e-06	0.133414	0.0845284	0.328064	1.4587e-05	4.02223e-05	3.74451e-05	3.10138e-05	7.18898e-06	6.83731e-06	9.07072	0.244486	9.07401	1.54394	2.96845e+06	1.10133e+08	1.10173e+08	-88.4561	0.0000000E+000	0.0000000E+000	0.0000000E+000	88.4561	0.0000000E+000	0.0000000E+000	0.0000000E+000	-88.4561	0.0000000E+000	0.0000000E+000	0.0000000E+000	-1.54394	0.0000000E+000	0.0000000E+000	0.0000000E+000	1.54394	37.1011	88.4561	-0.00243105
0.511825	0.12269	0.0141512	0.123503	-6.57949	103851	-0.00117632	-7.93357	2.19739e+07	288493	1	37	0.00542794	0.0439498	0	-0.241243	7	0.113529	0.0674806	0.872211	1.40524e-06	3.50339e-06	5.84711e-07	3.79513e-06	2.50296e-06	8.26619e-07	0.128783	0.138545	0.275534	1.22975e-05	3.28363e-05	7.02492e-06	4.23736e-05	5.01934e-06	6.32578e-06	8.04364	0.927763	8.09696	6.57949	2.88493e+08	2.50122e+09	2.5178e+09	-83.4205	0.0000000E+000	0.0000000E+000	0.0000000E+000	83.4205	0.0000000E+000	0.0000000E+000	0.0000000E+000	-83.4205	0.0000000E+000	0.0000000E+000	0.0000000E+000	-6.57949	0.0000000E+000	0.0000000E+000	0.0000000E+000	6.57949	8.66993	83.4205	-0.0218527
0.0199946	0.15775	0.00483154	0.157824	-1.7543	105275	-0.00117472	-7.572	1.64749e+09	1.544e+06	1	37	0.00541467	0.0343083	0	-3.2051	7	0.139379	0.215107	0.23555	3.58975e-06	4.44605e-06	1.37117e-06	4.23872e-06	1.73863e-06	4.59019e-07	0.146651	0.190389	0.348364	1.79827e-05	3.22358e-05	8.34392e-06	3.00657e-05	5.83026e-06	5.30832e-06	6.3332	0.193972	6.33617	1.7543	1.544e+09	5.04116e+10	5.04352e+10	-88.2457	0.0000000E+000	0.0000000E+000	0.0000000E+000	88.2457	0.0000000E+000	0.0000000E+000	0.0000000E+000	-88.2457	0.0000000E+000	0.0000000E+000	0.0000000E+000	-1.7543	0.0000000E+000	0.0000000E+000	0.0000000E+000	1.7543	32.6501	88.2457	-0.656961
10837.3	0.0997619	0.000583127	0.0997636	-0.334901	105291	-0.00108962	-7.03129	25184.6	0.860436	2	37	0.00514709	0.0515929	0	-3.23468	7	0.349344	0.214915	5.51569	8.76179e-06	7.59771e-06	6.03077e-06	4.52157e-06	3.70712e-06	9.86812e-06	0.156508	0.0350353	0.409636	6.98528e-06	4.81606e-05	4.23939e-06	7.24509e-06	5.77633e-06	6.33962e-05	10.0235	0.0585894	10.0237	0.334901	860.433	147204	147207	-89.6651	0.0000000E+000	0.0000000E+000	0.0000000E+000	89.6651	0.0000000E+000	0.0000000E+000	0.0000000E+000	-89.6651	0.0000000E+000	0.0000000E+000	0.0000000E+000	-0.334901	0.0000000E+000	0.0000000E+000	0.0000000E+000	0.334901	171.081	89.6651	-0.00218442
[...]
533.464	0.104308	0.0025862	0.10434	-1.4203	106843	-0.00120907	-7.85848	115359	70.8726	3	37	0.00506219	0.0485165	0	-6.61688	7	0.27782	0.141417	5.55322	4.29233e-06	4.19693e-06	7.41272e-06	4.70137e-06	5.27376e-06	4.74186e-06	0.0432167	0.0104109	0.454555	5.28271e-06	1.39299e-05	4.53031e-06	1.11678e-05	4.59527e-06	5.99995e-06	9.58113	0.237555	9.58408	1.4203	70872.8	2.85846e+06	2.85934e+06	-88.5797	0.0000000E+000	0.0000000E+000	0.0000000E+000	88.5797	0.0000000E+000	0.0000000E+000	0.0000000E+000	-88.5797	0.0000000E+000	0.0000000E+000	0.0000000E+000	-1.4203	0.0000000E+000	0.0000000E+000	0.0000000E+000	1.4203	40.3323	88.5797	-0.00296093
20.8333	0.109189	0.00285418	0.109227	-1.49736	106859	-0.001218	-8.00417	2.67658e+06	1827.62	3	37	0.00543973	0.0498022	0	-6.65189	7	0.322808	0.093292	5.21368	6.28565e-06	3.88636e-06	8.94526e-06	7.15914e-06	9.82113e-06	2.81725e-06	0.122434	0.105583	0.423106	1.38347e-05	3.93693e-05	7.04676e-06	3.89093e-05	7.79003e-06	1.67974e-05	9.15214	0.239235	9.15527	1.49736	1.82762e+06	6.99173e+07	6.99412e+07	-88.5026	0.0000000E+000	0.0000000E+000	0.0000000E+000	88.5026	0.0000000E+000	0.0000000E+000	0.0000000E+000	-88.5026	0.0000000E+000	0.0000000E+000	0.0000000E+000	-1.49736	0.0000000E+000	0.0000000E+000	0.0000000E+000	1.49736	38.2559	88.5026	-0.00249626
0.813551	0.118694	0.011468	0.119247	-5.51869	106900	-0.00122036	-7.9962	1.70588e+07	157772	3	37	0.005432	0.0455527	0	-6.74114	7	0.122775	0.0601548	1.09498	3.21908e-06	2.44961e-06	1.02168e-06	4.64511e-06	1.47775e-06	1.30622e-06	0.148134	0.220312	0.289067	1.68257e-05	3.59114e-05	2.09901e-05	4.43475e-05	8.28309e-06	9.28631e-06	8.34711	0.806483	8.38598	5.51869	1.57772e+08	1.63294e+09	1.64055e+09	-84.4813	0.0000000E+000	0.0000000E+000	0.0000000E+000	84.4813	0.0000000E+000	0.0000000E+000	0.0000000E+000	-84.4813	0.0000000E+000	0.0000000E+000	0.0000000E+000	-5.51869	0.0000000E+000	0.0000000E+000	0.0000000E+000	5.51869	10.35	84.4813	-0.0143541
0.0317924	0.15695	0.00753325	0.157131	-2.74796	107797	-0.00116038	-7.70906	6.64529e+08	1.52741e+06	3	37	0.00541631	0.0344701	0	-8.68705	7	0.121794	0.152623	0.256543	1.86858e-06	3.69444e-06	1.22394e-06	4.01118e-06	1.97586e-06	1.01564e-06	0.155294	0.246669	0.476343	2.13303e-05	3.10149e-05	7.35224e-06	3.32297e-05	8.52825e-06	9.58463e-06	6.35681	0.305112	6.36413	2.74796	1.52741e+09	3.18226e+10	3.18592e+10	-87.252	0.0000000E+000	0.0000000E+000	0.0000000E+000	87.252	0.0000000E+000	0.0000000E+000	0.0000000E+000	-87.252	0.0000000E+000	0.0000000E+000	0.0000000E+000	-2.74796	0.0000000E+000	0.0000000E+000	0.0000000E+000	2.74796	20.8343	87.252	-0.439947
0.0199946	0.15809	0.00489166	0.158166	-1.77229	108345	-0.00117269	-7.58941	1.62724e+09	1.55646e+06	3	37	0.00541414	0.0342307	0	-9.89199	7	0.116855	0.135608	0.224711	2.11397e-06	3.76564e-06	1.58704e-06	3.65134e-06	9.85951e-07	7.63679e-07	0.143939	0.142594	0.40549	1.01889e-05	3.46205e-05	8.95299e-06	2.93582e-05	4.00898e-06	2.37133e-06	6.31944	0.195537	6.32246	1.77229	1.55646e+09	5.03021e+10	5.03262e+10	-88.2277	0.0000000E+000	0.0000000E+000	0.0000000E+000	88.2277	0.0000000E+000	0.0000000E+000	0.0000000E+000	-88.2277	0.0000000E+000	0.0000000E+000	0.0000000E+000	-1.77229	0.0000000E+000	0.0000000E+000	0.0000000E+000	1.77229	32.3184	88.2277	-0.653319